timestamp_ms,emg1,emg2,emg3,accel_x,accel_y,accel_z,gyro_x,gyro_y,gyro_z
645842,2159,2052,2131,946,-2006,16069,-32,11,-5
645844,2162,2054,2119,946,-2006,16069,-42,9,-15
645845,2162,2057,2110,946,-2006,16069,-42,9,-15
645846,2160,2058,2108,876,-2105,15944,-52,8,-30
645848,2156,2057,2117,876,-2105,15944,-58,8,-44
645849,2160,2053,2129,717,-2196,15993,-59,12,-51
645850,2163,2053,2118,717,-2196,15993,-50,12,-55
645852,2161,2057,2109,602,-2168,16008,-36,15,-53
645853,2158,2056,2105,602,-2168,16008,-36,15,-53
645854,2156,2057,2123,602,-2168,16008,-18,15,-46
645856,2162,2052,2127,458,-2114,16036,-2,15,-44
645857,2163,2055,2114,458,-2114,16036,12,11,-43
645858,2163,2056,2105,347,-2064,16071,21,6,-44
645860,2159,2058,2106,347,-2064,16071,23,0,-44
645861,2158,2055,2127,347,-2064,16071,23,0,-44
645862,2162,2053,2123,286,-1991,16102,23,-4,-40
645864,2164,2055,2112,286,-1991,16102,21,-7,-38
645865,2160,2058,2105,248,-1948,16169,18,-11,-39
645866,2158,2058,2111,248,-1948,16169,10,-14,-39
645868,2159,2054,2126,248,-1948,16169,10,-14,-39
645869,2160,2054,2121,201,-1968,16274,3,-12,-36
645870,2161,2057,2111,201,-1968,16274,-5,-9,-36
645872,2159,2056,2107,169,-2030,16342,-12,-10,-36
645873,2158,2056,2117,169,-2030,16342,-13,-13,-32
645875,2159,2053,2130,102,-2063,16255,-18,-18,-33
645876,2161,2054,2118,102,-2063,16255,-18,-18,-33
645877,2163,2054,2108,102,-2063,16255,-18,-27,-32
645879,2160,2057,2105,67,-2163,16169,-18,-35,-29
645880,2156,2055,2118,67,-2163,16169,-18,-43,-28
645881,2163,2053,2126,136,-2243,16184,-17,-49,-26
645883,2162,2054,2113,136,-2243,16184,-21,-53,-22
645884,2158,2059,2105,291,-2229,16235,-21,-54,-17
645886,2161,2059,2110,291,-2229,16235,-21,-54,-17
645887,2158,2054,2127,291,-2229,16235,-22,-51,-14
645888,2163,2052,2120,471,-2204,16245,-24,-49,-14
645890,2161,2055,2110,471,-2204,16245,-28,-47,-16
645891,2160,2056,2107,641,-2124,16200,-29,-48,-16
645893,2156,2057,2116,641,-2124,16200,-30,-48,-16
645894,2159,2052,2128,692,-2081,16153,-33,-46,-17
645895,2162,2054,2118,692,-2081,16153,-33,-46,-17
645897,2163,2056,2107,692,-2081,16153,-36,-47,-13
645898,2160,2059,2106,759,-2087,16204,-38,-43,-12
645900,2156,2056,2123,759,-2087,16204,-43,-39,-8
645901,2160,2052,2122,781,-2124,16275,-51,-34,-6
645902,2162,2055,2114,781,-2124,16275,-61,-29,-5
645904,2159,2059,2102,781,-2124,16275,-61,-29,-5
645905,2159,2058,2110,855,-2133,16276,-68,-28,-4
645906,2158,2052,2127,855,-2133,16276,-70,-25,-3
645908,2162,2052,2123,940,-2181,16269,-71,-24,-7
645909,2163,2054,2113,940,-2181,16269,-72,-23,-10
645910,2202,2059,2104,948,-2326,16266,-72,-23,-16
645912,2157,2057,2117,948,-2326,16266,-72,-23,-16
645913,2156,2053,2130,948,-2326,16266,-70,-21,-21
645915,2165,2054,2119,962,-2445,16175,-65,-23,-27
645916,2163,2057,2108,962,-2445,16175,-54,-21,-31
645917,2161,2059,2104,984,-2506,16158,-38,-16,-35
645919,2158,2056,2122,984,-2506,16158,-23,-8,-35
645920,2163,2052,2124,981,-2559,16102,-12,-4,-36
645922,2165,2054,2114,981,-2559,16102,-12,-4,-36
645923,2162,2054,2103,981,-2559,16102,-6,0,-38
645924,2158,2058,2109,989,-2524,15987,5,3,-40
645925,2157,2055,2122,989,-2524,15987,12,4,-46
645927,2162,2053,2122,942,-2526,16053,18,8,-52
645928,2165,2057,2113,942,-2526,16053,18,8,-52
645929,2161,2061,2104,942,-2526,16053,23,11,-54
645931,2157,2056,2109,902,-2547,16114,24,13,-55
645932,2159,2055,2126,902,-2547,16114,25,16,-57
645933,2162,2054,2122,873,-2494,16077,26,18,-56
645935,2163,2055,2112,873,-2494,16077,27,13,-56
645936,2161,2056,2105,873,-2494,16077,27,13,-56
645937,2157,2058,2117,797,-2427,16046,33,9,-60
645939,2158,2054,2131,797,-2427,16046,37,8,-59
645940,2162,2054,2120,727,-2429,16095,42,6,-54
645941,2162,2057,2108,727,-2429,16095,45,4,-49
645943,2158,2057,2105,727,-2429,16095,45,4,-49
645944,2158,2056,2117,691,-2356,16129,46,5,-43
645945,2159,2055,2130,691,-2356,16129,49,8,-37
645947,2163,2055,2121,645,-2319,16068,49,6,-31
645948,2163,2054,2111,645,-2319,16068,45,3,-30
645949,2158,2059,2109,645,-2319,16068,45,3,-30
645951,2159,2056,2117,557,-2304,16067,41,3,-28
645952,2156,2053,2126,557,-2304,16067,36,1,-29
645953,2164,2052,2121,439,-2257,16093,32,-2,-26
645954,2161,2056,2109,439,-2257,16093,29,-3,-21
645956,2158,2057,2106,439,-2257,16093,29,-3,-21
645957,2158,2057,2118,301,-2206,16144,30,-11,-15
645959,2160,2053,2126,301,-2206,16144,34,-16,-5
645960,2162,2054,2117,237,-2215,16219,36,-23,2
645961,2160,2056,2108,237,-2215,16219,42,-34,13
645962,2161,2059,2106,237,-2215,16219,42,-34,13
645964,2154,2056,2121,196,-2188,16256,43,-42,25
645965,2163,2055,2127,196,-2188,16256,45,-52,33
645966,2163,2055,2115,186,-2147,16151,47,-62,39
645968,2160,2056,2105,186,-2147,16151,44,-65,39
645969,2159,2056,2106,203,-2196,16097,43,-71,39
645971,2158,2055,2124,203,-2196,16097,43,-71,39
645972,2162,2052,2124,203,-2196,16097,44,-75,41
645973,2162,2057,2113,296,-2187,16071,45,-77,41
645975,2161,2057,2102,296,-2187,16071,48,-76,42
645976,2156,2059,2108,347,-2097,16084,49,-76,45
645977,2161,2054,2128,347,-2097,16084,49,-76,45
645979,2162,2055,2121,347,-2097,16084,51,-74,45
645980,2160,2057,2111,385,-2033,16164,51,-74,44
645981,2160,2056,2104,385,-2033,16164,50,-73,44
645983,2157,2058,2114,460,-1935,16197,52,-72,45
645984,2159,2055,2130,460,-1935,16197,47,-74,46
645985,2164,2055,2118,460,-1935,16197,47,-74,46
645987,2160,2056,2109,512,-1816,16264,38,-74,48
645988,2161,2057,2109,512,-1816,16264,37,-79,48
645989,2156,2056,2116,579,-1759,16371,30,-83,49
645991,2161,2053,2131,579,-1759,16371,23,-81,50
645992,2160,2055,2116,658,-1764,16414,16,-81,50
645993,2163,2057,2109,658,-1764,16414,16,-81,50
645995,2160,2056,2104,658,-1764,16414,10,-82,51
645996,2158,2057,2118,745,-1834,16424,-1,-78,50
645997,2160,2052,2128,745,-1834,16424,-13,-75,45
645999,2162,2054,2114,829,-1876,16386,-26,-71,39
646000,2159,2054,2102,829,-1876,16386,-26,-71,39
646001,2161,2058,2106,829,-1876,16386,-32,-69,36
646003,2156,2054,2127,869,-1932,16313,-32,-65,28
646004,2160,2053,2123,869,-1932,16313,-29,-64,24
646005,2160,2055,2113,816,-1996,16314,-23,-57,21
646007,2163,2057,2104,816,-1996,16314,-12,-51,23
646008,2159,2057,2113,816,-1996,16314,-12,-51,23
646010,2115,2055,2130,779,-2022,16340,-2,-42,24
646011,2165,2054,2123,779,-2022,16340,5,-31,24
646012,2160,2055,2111,792,-2059,16351,6,-25,23
646013,2161,2059,2106,792,-2059,16351,3,-19,20
646015,2159,2058,2115,805,-2021,16351,-1,-20,11
646016,2161,2052,2131,805,-2021,16351,-1,-20,11
646017,2163,2054,2119,805,-2021,16351,2,-20,6
646019,2162,2054,2112,788,-1923,16269,9,-26,2
646020,2160,2057,2108,788,-1923,16269,16,-29,-3
646021,2159,2054,2117,800,-1959,16185,17,-31,-5
646023,2158,2052,2131,800,-1959,16185,17,-31,-5
646024,2163,2055,2119,800,-1959,16185,16,-32,-5
646025,2163,2055,2108,885,-1988,16241,7,-27,-8
646027,2159,2056,2105,885,-1988,16241,-6,-17,-11
646028,2158,2057,2118,1009,-2023,16287,-22,-11,-15
646029,2160,2052,2128,1009,-2023,16287,-39,-2,-19
646031,2163,2053,2116,1009,-2023,16287,-39,-2,-19
646032,2160,2057,2105,1169,-2100,16301,-54,12,-28
646034,2159,2056,2107,1169,-2100,16301,-67,20,-36
646035,2158,2054,2126,1193,-2185,16250,-75,29,-45
646036,2162,2054,2121,1193,-2185,16250,-83,39,-57
646038,2160,2057,2110,1118,-2377,16164,-86,45,-66
646039,2160,2057,2104,1118,-2377,16164,-86,45,-66
646041,2159,2056,2116,1118,-2377,16164,-81,53,-68
646042,2158,2053,2130,1023,-2551,16110,-75,59,-71
646043,2161,2052,2115,1023,-2551,16110,-65,65,-71
646045,2163,2056,2109,1013,-2688,16132,-49,72,-70
646046,2160,2058,2103,1013,-2688,16132,-41,77,-73
646048,2157,2055,2120,958,-2673,16137,-26,80,-74
646049,2160,2055,2126,958,-2673,16137,-26,80,-74
646050,2162,2055,2114,958,-2673,16137,-5,84,-78
646052,2162,2056,2105,849,-2630,16148,14,86,-77
646053,2159,2057,2106,849,-2630,16148,32,87,-74
646054,2157,2055,2124,720,-2604,16087,48,85,-72
646056,2162,2052,2120,720,-2604,16087,59,82,-69
646057,2161,2057,2113,720,-2604,16087,59,82,-69
646058,2161,2059,2105,570,-2533,16048,66,78,-65
646060,2158,2056,2110,570,-2533,16048,69,75,-60
646061,2158,2054,2129,418,-2412,16111,76,71,-56
646062,2163,2053,2120,418,-2412,16111,77,66,-51
646064,2160,2057,2110,418,-2412,16111,77,66,-51
646065,2160,2056,2105,333,-2253,16174,77,59,-41
646066,2159,2059,2116,333,-2253,16174,77,50,-33
646068,2158,2054,2131,282,-2141,16224,79,39,-24
646069,2163,2054,2120,282,-2141,16224,78,27,-21
646070,2160,2054,2108,209,-2031,16211,71,19,-10
646072,2159,2059,2107,209,-2031,16211,71,19,-10
646073,2154,2056,2116,209,-2031,16211,63,7,3
646074,2158,2054,2128,187,-1934,16218,53,-1,9
646075,2162,2054,2118,187,-1934,16218,37,-9,15
646077,2161,2056,2108,315,-1927,16252,19,-19,25
646078,2159,2057,2104,315,-1927,16252,19,-19,25
646079,2158,2056,2116,315,-1927,16252,-2,-24,30
646081,2160,2052,2129,432,-1912,16173,-18,-32,32
646082,2163,2055,2115,432,-1912,16173,-27,-41,35
646083,2161,2057,2106,567,-1904,16046,-32,-51,37
646085,2159,2057,2107,567,-1904,16046,-32,-51,37
646086,2158,2057,2122,567,-1904,16046,-31,-53,38
646088,2160,2053,2125,699,-1993,16000,-28,-50,43
646089,2163,2056,2112,699,-1993,16000,-22,-43,47
646090,2160,2057,2105,808,-2129,16034,-20,-33,51
646092,2159,2058,2111,808,-2129,16034,-15,-21,55
646093,2157,2054,2126,817,-2218,16088,-11,-14,51
646094,2163,2054,2121,817,-2218,16088,-11,-14,51
646096,2161,2056,2110,817,-2218,16088,2,-11,52
646097,2160,2058,2104,858,-2295,16138,16,-7,47
646098,2158,2058,2116,858,-2295,16138,34,-6,45
646100,2158,2053,2129,833,-2365,16301,56,-6,43
646101,2163,2054,2121,833,-2365,16301,56,-6,43
646102,2163,2056,2111,833,-2365,16301,77,-5,40
646104,2161,2056,2106,739,-2367,16442,96,0,38
646105,2157,2057,2117,739,-2367,16442,116,5,37
646106,2161,2055,2131,647,-2239,16440,133,7,31
646107,2162,2052,2118,647,-2239,16440,133,7,31
646109,2160,2055,2109,647,-2239,16440,143,13,28
646110,2159,2057,2107,529,-2061,16377,150,14,22
646111,2159,2056,2117,529,-2061,16377,153,13,22
646113,2160,2052,2129,433,-1893,16374,146,14,21
646114,2165,2055,2116,433,-1893,16374,146,14,21
646115,2160,2054,2109,433,-1893,16374,134,15,19
646117,2158,2056,2104,371,-1736,16347,115,10,23
646118,2159,2055,2119,371,-1736,16347,91,5,24
646119,2158,2053,2128,414,-1590,16305,67,2,23
646121,2165,2055,2116,414,-1590,16305,67,2,23
646122,2162,2056,2108,414,-1590,16305,38,-1,20
646123,2158,2054,2105,471,-1577,16253,2,0,20
646125,2159,2058,2118,471,-1577,16253,-33,2,24
646126,2160,2052,2126,618,-1613,16283,-69,7,22
646127,2163,2054,2116,618,-1613,16283,-69,7,22
646128,2163,2057,2106,618,-1613,16283,-95,12,23
646130,2160,2057,2105,796,-1682,16345,-113,13,24
646131,2159,2056,2120,796,-1682,16345,-122,14,25
646133,2161,2052,2126,864,-1775,16288,-123,14,25
646134,2163,2055,2116,864,-1775,16288,-117,8,28
646135,2161,2055,2105,864,-1775,16288,-117,8,28
646137,2158,2059,2106,881,-1919,16248,-103,6,32
646138,2157,2054,2126,881,-1919,16248,-91,5,35
646139,2160,2052,2123,888,-2101,16253,-71,7,41
646141,2163,2057,2113,888,-2101,16253,-55,12,43
646142,2160,2057,2105,888,-2101,16253,-55,12,43
646143,2159,2058,2110,896,-2271,16238,-43,19,42
646145,2161,2054,2126,896,-2271,16238,-30,24,35
646146,2160,2053,2120,862,-2370,16252,-12,30,28
646147,2163,2056,2112,862,-2370,16252,4,34,18
646148,2158,2057,2104,862,-2370,16252,4,34,18
646150,2159,2057,2112,758,-2440,16146,22,40,7
646151,2158,2054,2129,758,-2440,16146,41,40,0
646152,2163,2055,2120,626,-2449,16056,61,36,-10
646154,2162,2055,2110,626,-2449,16056,78,27,-18
646155,2160,2059,2104,626,-2449,16056,78,27,-18
646156,2158,2057,2116,538,-2383,16067,93,17,-21
646158,2161,2055,2130,538,-2383,16067,106,12,-24
646159,2160,2054,2118,487,-2210,16049,121,5,-23
646160,2160,2054,2108,487,-2210,16049,122,3,-21
646162,2157,2057,2109,509,-2027,16057,112,5,-24
646163,2159,2057,2117,509,-2027,16057,112,5,-24
646164,2161,2053,2128,509,-2027,16057,100,7,-24
646166,2163,2055,2118,564,-1809,16089,83,10,-27
646167,2162,2055,2109,564,-1809,16089,61,12,-27
646168,2161,2057,2104,532,-1688,16079,41,10,-27
646170,2158,2056,2121,532,-1688,16079,18,9,-26
646171,2161,2055,2129,532,-1688,16079,18,9,-26
646172,2163,2054,2115,497,-1676,16041,-7,6,-26
646174,2161,2057,2106,497,-1676,16041,-31,5,-27
646175,2161,2056,2104,381,-1790,16012,-57,-3,-25
646176,2159,2056,2124,381,-1790,16012,-79,-6,-27
646178,2160,2052,2122,381,-1790,16012,-79,-6,-27
646179,2160,2057,2115,322,-1971,16033,-97,-8,-29
646180,2160,2059,2105,322,-1971,16033,-106,-13,-26
646182,2158,2056,2111,344,-2134,16061,-106,-18,-27
646183,2156,2055,2129,344,-2134,16061,-100,-22,-22
646185,2163,2053,2122,414,-2235,16145,-90,-24,-19
646186,2163,2057,2111,414,-2235,16145,-77,-26,-16
646187,2160,2058,2107,414,-2235,16145,-77,-26,-16
646189,2157,2057,2117,511,-2342,16193,-61,-29,-15
646190,2162,2053,2129,511,-2342,16193,-41,-33,-16
646192,2162,2053,2114,608,-2369,16260,-22,-35,-17
646193,2161,2056,2107,608,-2369,16260,-5,-36,-16
646194,2161,2056,2104,651,-2314,16265,11,-37,-16
646196,2158,2055,2126,651,-2314,16265,11,-37,-16
646197,2162,2053,2122,651,-2314,16265,25,-39,-13
646198,2161,2055,2115,683,-2238,16204,37,-34,-17
646200,2161,2058,2104,683,-2238,16204,44,-31,-16
646201,2158,2058,2111,685,-2147,16188,45,-32,-12
646203,2161,2054,2130,685,-2147,16188,42,-26,-10
646204,2162,2053,2119,685,-2147,16188,42,-26,-10
646205,2161,2055,2110,662,-2087,16180,40,-26,-8
646207,2161,2058,2107,662,-2087,16180,34,-23,-8
646208,2156,2056,2116,613,-2042,16132,27,-23,-6
646209,2159,2052,2130,613,-2042,16132,19,-22,-2
646211,2163,2054,2118,564,-2115,16152,10,-20,-2
646212,2160,2054,2108,564,-2115,16152,10,-20,-2
646213,2161,2056,2103,564,-2115,16152,4,-19,-2
646215,2156,2056,2118,539,-2121,16223,-4,-17,-2
646216,2161,2052,2128,539,-2121,16223,-14,-18,-1
646217,2163,2055,2117,579,-2085,16303,-13,-21,1
646219,2161,2057,2106,579,-2085,16303,-13,-21,1
646220,2159,2057,2104,579,-2085,16303,-10,-21,4
646221,2159,2054,2120,655,-2075,16293,-3,-22,8
646223,2161,2054,2126,655,-2075,16293,2,-22,11
646224,2163,2055,2115,712,-2078,16302,2,-22,15
646225,2160,2056,2105,712,-2078,16302,1,-17,12
646227,2161,2058,2107,712,-2078,16302,1,-17,12
646228,2159,2057,2125,733,-2102,16290,-2,-11,13
646229,2160,2053,2125,733,-2102,16290,-8,-1,10
646230,2161,2055,2115,684,-2111,16231,-9,5,9
646232,2162,2054,2104,684,-2111,16231,-1,11,10
646233,2158,2057,2106,684,-2111,16231,-1,11,10
646234,2157,2057,2125,581,-2117,16218,0,14,10
646236,2166,2053,2124,581,-2117,16218,3,15,10
646237,2161,2055,2112,489,-2166,16261,8,17,12
646238,2161,2055,2102,489,-2166,16261,8,17,12
646239,2160,2058,2107,489,-2166,16261,12,14,15
646241,2158,2057,2124,440,-2171,16210,15,6,15
646242,2161,2052,2122,440,-2171,16210,24,-1,13
646243,2161,2052,2114,415,-2127,16194,31,-8,9
646245,2163,2055,2103,415,-2127,16194,31,-8,9
646246,2159,2059,2106,415,-2127,16194,39,-15,12
646247,2158,2056,2125,465,-2032,16261,48,-16,15
646249,2160,2052,2120,465,-2032,16261,51,-15,15
646250,2160,2055,2113,528,-1966,16285,58,-11,20
646251,2161,2059,2107,528,-1966,16285,58,-11,20
646253,2158,2058,2113,528,-1966,16285,55,-8,22
646254,2159,2054,2126,604,-1919,16264,53,-4,21
646255,2162,2054,2121,604,-1919,16264,48,0,23
646256,2163,2056,2115,655,-1904,16183,41,0,24
646258,2160,2058,2104,655,-1904,16183,41,0,24
646259,2159,2057,2110,655,-1904,16183,29,3,22
646260,2158,2055,2124,610,-1887,16153,15,-2,16
646262,2163,2054,2122,610,-1887,16153,5,-6,11
646263,2163,2056,2112,592,-1913,16166,-3,-4,9
646264,2161,2057,2104,592,-1913,16166,-3,-4,9
646265,2159,2056,2110,592,-1913,16166,-7,-3,7
646267,2158,2053,2126,628,-1965,16164,-13,-1,8
646268,2161,2053,2122,628,-1965,16164,-16,0,4
646269,2162,2057,2115,617,-2029,16160,-18,2,-1
646271,2161,2057,2105,617,-2029,16160,-18,2,-1
646272,2156,2059,2111,617,-2029,16160,-18,4,-6
646273,2158,2055,2128,627,-2087,16172,-16,8,-11
646275,2164,2055,2122,627,-2087,16172,-11,10,-14
646276,2163,2055,2110,612,-2092,16193,-5,4,-15
646277,2161,2056,2104,612,-2092,16193,-5,4,-15
646279,2157,2059,2116,612,-2092,16193,-1,5,-16
646280,2159,2055,2131,577,-2098,16148,4,7,-21
646281,2161,2052,2121,577,-2098,16148,8,6,-21
646282,2161,2055,2110,541,-2126,16113,11,3,-18
646284,2161,2057,2107,541,-2126,16113,11,3,-18
646285,2156,2057,2115,541,-2126,16113,15,1,-19
646286,2158,2055,2131,545,-2068,16099,20,-3,-20
646288,2161,2054,2119,545,-2068,16099,19,-5,-20
646289,2160,2055,2109,534,-2076,16189,14,-4,-17
646290,2158,2058,2107,534,-2076,16189,14,-4,-17
646292,2159,2056,2118,534,-2076,16189,8,-7,-17
646293,2159,2053,2129,585,-2064,16144,5,-6,-16
646294,2163,2055,2118,585,-2064,16144,-2,-7,-17
646296,2162,2055,2108,599,-2048,16143,-4,-11,-19
646297,2158,2057,2103,599,-2048,16143,-6,-16,-18
646298,2158,2055,2120,599,-2048,16143,-6,-16,-18
646300,2161,2054,2129,564,-2046,16132,-7,-16,-19
646301,2162,2054,2115,564,-2046,16132,-8,-17,-22
646302,2161,2054,2104,549,-2078,16155,-7,-20,-18
646304,2119,2057,2107,549,-2078,16155,-8,-21,-15
646305,2159,2056,2125,574,-2117,16145,-9,-22,-13
646307,2163,2052,2120,574,-2117,16145,-9,-22,-13
646308,2160,2054,2112,574,-2117,16145,-11,-22,-15
646309,2161,2057,2106,587,-2140,16116,-12,-26,-13
646311,2159,2056,2115,587,-2140,16116,-13,-28,-15
646312,2156,2052,2131,608,-2161,16130,-11,-32,-12
646313,2162,2055,2119,608,-2161,16130,-8,-33,-14
646315,2163,2056,2108,608,-2161,16130,-8,-33,-14
646316,2161,2057,2106,642,-2188,16171,-4,-27,-13
646318,2156,2057,2117,642,-2188,16171,-1,-29,-15
646319,2160,2052,2130,697,-2176,16197,2,-27,-14
646320,2163,2055,2115,697,-2176,16197,2,-23,-12
646322,2160,2057,2108,666,-2160,16206,4,-25,-9
646323,2160,2056,2107,666,-2160,16206,4,-25,-9
646324,2158,2055,2120,666,-2160,16206,6,-27,-12
646326,2161,2054,2129,627,-2114,16154,11,-27,-10
646327,2162,2054,2114,627,-2114,16154,17,-31,-8
646328,2162,2054,2102,577,-2119,16081,22,-33,-7
646330,2159,2056,2105,577,-2119,16081,22,-38,-4
646331,2156,2056,2125,577,-2119,16081,22,-38,-4
646332,2160,2052,2122,538,-2140,16111,21,-41,-4
646334,2162,2056,2112,538,-2140,16111,19,-38,-3
646335,2163,2056,2105,603,-2106,16252,12,-33,-2
646336,2159,2057,2110,603,-2106,16252,8,-29,-2
646338,2159,2054,2128,603,-2106,16252,8,-29,-2
646339,2163,2053,2123,673,-2064,16378,8,-26,2
646340,2161,2054,2113,673,-2064,16378,3,-24,0
646341,2161,2057,2104,711,-2059,16348,2,-22,2
646343,2159,2058,2111,711,-2059,16348,4,-20,1
646344,2158,2054,2129,711,-2059,16348,4,-20,1
646345,2162,2055,2125,680,-2086,16290,3,-18,-1
646347,2162,2054,2113,680,-2086,16290,0,-14,-5
646348,2158,2057,2103,643,-2113,16279,1,-7,-6
646349,2156,2056,2111,643,-2113,16279,1,-3,-1
646350,2158,2054,2128,643,-2113,16279,1,-3,-1
646352,2163,2053,2123,625,-2104,16309,3,-1,1
646353,2162,2057,2113,625,-2104,16309,4,3,3
646354,2160,2057,2105,584,-2076,16263,8,8,7
646355,2160,2057,2107,584,-2076,16263,8,8,7
646357,2118,2057,2127,584,-2076,16263,14,5,11
646358,2161,2052,2122,535,-2048,16181,19,1,12
646359,2162,2054,2114,535,-2048,16181,24,-2,15
646361,2163,2055,2103,535,-2048,16181,24,-2,15
646362,2159,2059,2107,495,-2039,16188,27,-9,18
646363,2159,2055,2127,495,-2039,16188,29,-10,18
646364,2163,2053,2122,517,-2065,16251,30,-10,17
646366,2162,2054,2112,517,-2065,16251,30,-5,19
646367,2161,2059,2104,598,-2068,16338,28,0,21
646368,2158,2058,2111,598,-2068,16338,28,0,21
646370,2159,2055,2129,598,-2068,16338,28,-3,22
646371,2161,2053,2119,654,-1993,16289,28,1,21
646372,2163,2054,2114,654,-1993,16289,26,2,17
646374,2162,2059,2104,654,-1993,16289,26,2,17
646375,2158,2059,2108,649,-1970,16245,27,3,14
646376,2156,2054,2126,649,-1970,16245,27,4,15
646377,2162,2055,2123,634,-2040,16206,24,7,16
646379,2163,2055,2113,634,-2040,16206,26,11,16
646380,2160,2056,2104,634,-2040,16206,26,11,16
646381,2158,2059,2111,639,-2023,16154,26,13,14
646383,2159,2055,2129,639,-2023,16154,23,11,12
646384,2160,2053,2121,601,-1976,16176,24,12,11
646385,2160,2054,2112,601,-1976,16176,27,9,10
646386,2159,2057,2104,601,-1976,16176,27,9,10
646388,2160,2058,2109,567,-2000,16126,33,8,10
646389,2158,2054,2128,567,-2000,16126,34,6,10
646390,2163,2055,2122,581,-1997,16163,35,4,12
646392,2163,2055,2115,581,-1997,16163,33,4,10
646393,2158,2056,2100,581,-1997,16163,33,4,10
646394,2158,2059,2110,619,-2005,16205,29,5,8
646395,2158,2054,2127,619,-2005,16205,27,5,1
646397,2161,2052,2122,609,-1971,16161,26,1,-1
646398,2162,2055,2115,609,-1971,16161,26,1,-1
646399,2161,2056,2104,609,-1971,16161,24,0,-1
646400,2158,2058,2109,612,-1988,16152,23,-1,-5
646402,2158,2055,2127,612,-1988,16152,21,-1,-6
646403,2162,2052,2122,613,-1973,16150,21,-1,-7
646404,2163,2054,2114,613,-1973,16150,21,-1,-7
646406,2162,2056,2104,613,-1973,16150,18,-2,-7
646407,2160,2056,2110,609,-1945,16127,16,-4,-10
646408,2159,2054,2127,609,-1945,16127,14,-7,-8
646410,2162,2053,2121,602,-1952,16143,8,-8,-7
646411,2162,2056,2112,602,-1952,16143,8,-8,-7
646412,2159,2057,2104,602,-1952,16143,0,-10,-11
646414,2157,2059,2113,600,-1971,16181,-4,-14,-9
646415,2159,2055,2128,600,-1971,16181,-6,-11,-10
646416,2163,2052,2120,604,-2010,16216,-6,-10,-13
646418,2160,2055,2109,604,-2010,16216,-6,-10,-13
646419,2162,2056,2106,604,-2010,16216,-8,-11,-12
646420,2158,2057,2119,604,-2053,16200,-7,-11,-13
646422,2161,2052,2129,604,-2053,16200,-7,-14,-10
646423,2165,2052,2119,622,-2111,16152,-3,-15,-10
646424,2160,2057,2106,622,-2111,16152,-2,-15,-12
646426,2160,2056,2105,622,-2111,16152,-2,-15,-12
646427,2158,2054,2121,601,-2146,16148,0,-17,-13
646428,2160,2052,2128,601,-2146,16148,5,-17,-14
646430,2162,2055,2115,620,-2142,16169,10,-17,-13
646431,2163,2057,2104,620,-2142,16169,16,-13,-9
646433,2158,2058,2107,612,-2108,16195,21,-10,-6
646434,2158,2056,2125,612,-2108,16195,21,-10,-6
646435,2163,2055,2123,612,-2108,16195,22,-11,-5
646437,2163,2054,2111,608,-2105,16210,20,-10,-6
646438,2160,2056,2104,608,-2105,16210,18,-10,-7
646439,2159,2058,2110,599,-2061,16195,18,-13,-9
646441,2158,2054,2129,599,-2061,16195,18,-18,-7
646442,2163,2055,2122,599,-2061,16195,18,-18,-7
646443,2160,2055,2113,573,-2004,16209,22,-19,-5
646445,2160,2057,2104,573,-2004,16209,22,-21,0
646446,2157,2056,2114,592,-1972,16242,19,-19,4
646447,2161,2055,2130,592,-1972,16242,16,-19,9
646448,2165,2054,2120,592,-1972,16242,16,-19,9
646450,2158,2054,2110,668,-1958,16277,10,-17,7
646451,2163,2056,2107,668,-1958,16277,3,-19,6
646452,2153,2056,2114,690,-1953,16287,-2,-20,6
646454,2160,2055,2131,690,-1953,16287,-2,-19,7
646455,2162,2055,2119,690,-1953,16287,-2,-19,7
646456,2160,2055,2110,654,-1936,16247,-5,-18,4
646458,2161,2057,2106,654,-1936,16247,-8,-18,0
646459,2159,2056,2117,631,-1977,16204,-7,-17,0
646460,2155,2054,2130,631,-1977,16204,-5,-18,3
646462,2166,2054,2121,631,-1977,16204,-5,-18,3
646463,2161,2055,2109,582,-2041,16233,-6,-17,3
646464,2159,2056,2106,582,-2041,16233,-7,-14,3
646465,2157,2057,2117,627,-2029,16309,-10,-12,4
646467,2158,2052,2129,627,-2029,16309,-4,-9,7
646468,2167,2054,2118,627,-2029,16309,-4,-9,7
646469,2161,2056,2108,690,-2001,16260,6,-8,12
646471,2158,2059,2107,690,-2001,16260,15,-9,12
646472,2158,2056,2117,704,-2052,16197,18,-9,13
646473,2156,2052,2128,704,-2052,16197,12,-7,6
646475,2160,2055,2116,704,-2052,16197,12,-7,6
646476,2163,2054,2109,706,-2036,16237,12,0,2
646477,2163,2057,2106,706,-2036,16237,11,5,-2
646478,2152,2056,2117,679,-2040,16283,8,14,-8
646480,2160,2053,2129,679,-2040,16283,8,14,-8
646481,2163,2054,2121,679,-2040,16283,9,18,-6
646482,2160,2055,2108,629,-2030,16397,11,27,-3
646483,2156,2058,2107,629,-2030,16397,14,34,-1
646485,2160,2056,2116,603,-2028,16391,17,43,4
646486,2156,2052,2131,603,-2028,16391,17,43,4
646487,2160,2053,2118,603,-2028,16391,12,48,10
646489,2162,2055,2108,631,-2067,16372,5,55,10
646490,2160,2058,2107,631,-2067,16372,-2,62,5
646491,2162,2056,2117,563,-2016,16427,-1,64,3
646493,2151,2054,2129,563,-2016,16427,-1,64,3
646494,2161,2054,2119,563,-2016,16427,5,65,4
646495,2162,2056,2111,495,-2021,16433,12,67,8
646496,2157,2057,2109,495,-2021,16433,20,65,16
646498,2164,2056,2117,507,-2087,16383,24,63,22
646499,2171,2053,2130,507,-2087,16383,24,63,22
646500,2155,2053,2121,507,-2087,16383,24,65,28
646502,2153,2055,2106,546,-2134,16333,23,71,32
646503,2145,2057,2108,546,-2134,16333,21,78,32
646504,2140,2057,2118,548,-2125,16422,12,87,29
646505,2148,2053,2126,548,-2125,16422,12,87,29
646507,2166,2054,2119,548,-2125,16422,1,102,28
646508,2175,2056,2111,609,-1950,16573,-4,122,19
646509,2143,2056,2105,609,-1950,16573,4,129,15
646511,2157,2057,2118,676,-1868,16060,21,121,20
646512,2165,2055,2127,676,-1868,16060,21,121,20
646513,2177,2055,2117,676,-1868,16060,30,102,20
646515,2166,2054,2106,588,-2074,15701,15,80,18
646516,2155,2057,2107,588,-2074,15701,-14,65,16
646517,2139,2055,2123,377,-2183,15940,-50,58,13
646519,2170,2052,2127,377,-2183,15940,-50,58,13
646520,2169,2056,2117,377,-2183,15940,-82,60,9
646521,2161,2057,2104,365,-2114,16251,-100,68,15
646523,2160,2058,2106,365,-2114,16251,-100,71,28
646524,2156,2056,2127,497,-2096,16325,-95,72,39
646525,2161,2055,2122,497,-2096,16325,-83,71,50
646527,2160,2055,2112,497,-2096,16325,-83,71,50
646528,2161,2057,2105,446,-2113,16335,-72,69,54
646529,2156,2056,2110,446,-2113,16335,-62,70,52
646531,2158,2055,2131,320,-2173,16363,-50,67,52
646532,2163,2054,2122,320,-2173,16363,-36,60,52
646533,2162,2054,2112,320,-2173,16363,-36,60,52
646535,2161,2057,2106,250,-2232,16316,-23,51,48
646536,2159,2058,2114,250,-2232,16316,-2,48,53
646537,2158,2052,2131,250,-2223,16310,27,41,61
646539,2162,2052,2120,250,-2223,16310,54,37,63
646540,2162,2056,2110,250,-2223,16310,54,37,63
646541,2159,2059,2108,331,-2192,16258,77,38,61
646543,2158,2057,2115,331,-2192,16258,103,41,62
646544,2158,2055,2130,429,-2081,16140,120,45,59
646545,2163,2054,2121,429,-2081,16140,137,48,53
646547,2161,2056,2109,449,-1996,16171,150,51,47
646548,2161,2057,2104,449,-1996,16171,150,51,47
646549,2158,2057,2118,449,-1996,16171,158,59,43
646551,2161,2052,2129,440,-1939,16155,166,64,43
646552,2163,2054,2116,440,-1939,16155,168,62,45
646553,2160,2054,2107,313,-1850,15894,169,54,39
646555,2159,2059,2105,313,-1850,15894,169,54,39
646556,2156,2054,2122,313,-1850,15894,165,40,31
646557,2161,2053,2126,229,-1755,15725,154,24,22
646559,2162,2054,2115,229,-1755,15725,140,4,12
646560,2161,2056,2102,162,-1654,15651,127,-13,6
646561,2159,2056,2106,162,-1654,15651,110,-26,0
646563,2156,2055,2126,162,-1654,15651,110,-26,0
646564,2204,2052,2124,205,-1572,15705,95,-36,-1
646565,2160,2055,2114,205,-1572,15705,76,-43,0
646567,2160,2056,2104,308,-1525,15779,56,-48,-1
646568,2161,2056,2109,308,-1525,15779,36,-51,-4
646569,2159,2055,2126,308,-1525,15779,36,-51,-4
646571,2162,2053,2123,313,-1515,15905,12,-53,-10
646572,2162,2055,2113,313,-1515,15905,-9,-50,-15
646573,2158,2057,2105,291,-1568,16078,-33,-44,-18
646575,2156,2059,2114,291,-1568,16078,-52,-42,-19
646576,2161,2052,2131,253,-1664,16166,-65,-46,-21
646578,2166,2054,2118,253,-1664,16166,-65,-46,-21
646579,2159,2056,2107,253,-1664,16166,-75,-52,-21
646580,2159,2057,2105,207,-1725,16236,-79,-60,-23
646582,2159,2055,2121,207,-1725,16236,-72,-64,-25
646583,2161,2052,2126,183,-1856,16269,-63,-69,-25
646584,2162,2054,2114,183,-1856,16269,-47,-74,-25
646586,2161,2054,2104,198,-1958,16305,-33,-76,-25
646587,2159,2056,2111,198,-1958,16305,-33,-76,-25
646589,2156,2055,2129,198,-1958,16305,-20,-81,-30
646590,2163,2053,2121,241,-1970,16294,1,-81,-29
646591,2162,2054,2110,241,-1970,16294,18,-80,-27
646593,2161,2059,2106,269,-1954,16252,39,-83,-30
646594,2159,2057,2117,269,-1954,16252,55,-82,-29
646595,2159,2054,2130,269,-1954,16252,55,-82,-29
646597,2162,2055,2118,285,-1932,16227,66,-84,-26
646598,2163,2057,2108,285,-1932,16227,69,-85,-26
646600,2160,2056,2104,303,-1887,16215,70,-88,-23
646601,2158,2055,2121,303,-1887,16215,64,-88,-20
646602,2163,2052,2129,328,-1842,16231,57,-90,-20
646604,2166,2054,2114,328,-1842,16231,57,-90,-20
646605,2162,2057,2104,328,-1842,16231,47,-90,-19
646606,2159,2057,2106,440,-1756,16216,37,-88,-21
646608,2158,2055,2125,440,-1756,16216,27,-89,-23
646609,2160,2052,2124,555,-1713,16185,17,-87,-24
646610,2162,2055,2112,555,-1713,16185,10,-84,-30
646612,2161,2058,2105,555,-1713,16185,10,-84,-30
646613,2158,2059,2112,630,-1686,16118,3,-84,-31
646615,2159,2053,2128,630,-1686,16118,-9,-84,-36
646616,2163,2054,2121,574,-1744,16132,-21,-80,-37
646617,2162,2054,2111,574,-1744,16132,-33,-74,-45
646619,2158,2057,2108,569,-1791,16157,-44,-72,-48
646620,2158,2056,2118,569,-1791,16157,-58,-70,-48
646621,2158,2052,2128,569,-1791,16157,-58,-70,-48
646623,2163,2055,2115,577,-1822,16225,-68,-67,-52
646624,2162,2054,2104,577,-1822,16225,-73,-65,-53
646626,2157,2057,2105,544,-1905,16249,-78,-62,-50
646627,2156,2054,2127,544,-1905,16249,-83,-61,-50
646628,2162,2055,2123,483,-2003,16267,-83,-59,-48
646630,2163,2055,2112,483,-2003,16267,-80,-55,-47
646631,2158,2056,2104,483,-2003,16267,-80,-55,-47
646633,2160,2058,2114,472,-2081,16356,-83,-51,-48
646634,2158,2052,2130,472,-2081,16356,-79,-49,-45
646635,2162,2053,2119,506,-2148,16439,-69,-48,-40
646637,2160,2057,2108,506,-2148,16439,-58,-45,-40
646638,2161,2054,2104,499,-2175,16453,-48,-38,-35
646640,2156,2055,2119,499,-2175,16453,-48,-38,-35
646641,2159,2055,2129,499,-2175,16453,-34,-33,-29
646642,2165,2055,2115,532,-2205,16419,-23,-26,-27
646644,2160,2058,2105,532,-2205,16419,-13,-18,-26
646645,2161,2058,2108,572,-2149,16398,1,-15,-25
646646,2156,2055,2126,572,-2149,16398,11,-13,-20
646648,2166,2054,2122,586,-2127,16366,16,-7,-19
646649,2157,2053,2113,586,-2127,16366,16,-7,-19
646650,2155,2057,2104,586,-2127,16366,16,-1,-17
646652,2162,2057,2112,592,-2107,16336,16,1,-11
646653,2163,2054,2130,592,-2107,16336,19,5,-12
646654,2160,2055,2119,568,-2071,16306,18,6,-8
646656,2160,2055,2112,568,-2071,16306,18,6,-8
646657,2160,2056,2105,568,-2071,16306,14,6,-3
646658,2161,2058,2112,587,-2088,16285,8,9,2
646659,2159,2055,2128,587,-2088,16285,-1,13,5
646661,2160,2055,2118,587,-2088,16285,-1,13,5
646662,2204,2054,2113,619,-2128,16262,-6,13,10
646663,2157,2056,2107,619,-2128,16262,-9,15,10
646665,2154,2058,2112,646,-2127,16249,-7,19,11
646666,2161,2054,2131,646,-2127,16249,-4,20,10
646667,2160,2055,2118,646,-2127,16249,-4,20,10
646669,2161,2055,2113,642,-2122,16307,-2,24,12
646670,2160,2058,2106,642,-2122,16307,4,30,16
646671,2157,2057,2114,642,-2127,16326,8,36,21
646672,2159,2054,2130,642,-2127,16326,11,40,21
646674,2163,2052,2118,642,-2127,16326,11,40,21
646675,2164,2056,2110,675,-2119,16230,17,41,20
646676,2165,2056,2104,675,-2119,16230,20,38,22
646678,2148,2056,2114,690,-2096,16208,21,39,24
646679,2158,2055,2131,690,-2096,16208,23,42,21
646680,2166,2055,2119,690,-2096,16208,23,42,21
646682,2163,2055,2110,687,-2069,16236,20,47,21
646683,2159,2059,2104,687,-2069,16236,20,50,20
646684,2157,2057,2116,657,-1988,16312,20,58,17
646685,2169,2055,2131,657,-1988,16312,24,64,16
646687,2156,2054,2119,657,-1988,16312,24,64,16
646688,2153,2055,2108,633,-1979,16299,28,65,17
646689,2151,2058,2107,633,-1979,16299,30,68,19
646691,2163,2057,2117,589,-1958,16199,32,68,17
646692,2157,2053,2131,589,-1958,16199,29,65,14
646693,2165,2054,2118,589,-1958,16199,29,65,14
646695,2162,2055,2108,475,-1916,15978,29,58,6
646696,2158,2056,2105,475,-1916,15978,26,47,2
646697,2158,2054,2117,374,-1902,15849,26,32,-4
646699,2158,2051,2129,374,-1902,15849,24,20,-6
646700,2161,2053,2117,374,-1902,15849,24,20,-6
646701,2160,2056,2108,312,-1882,15877,23,9,-1
646702,2158,2055,2105,312,-1882,15877,13,0,5
646704,2156,2056,2117,297,-1868,16041,3,-4,9
646705,2161,2053,2131,297,-1868,16041,-13,-5,11
646706,2162,2055,2116,297,-1868,16041,-13,-5,11
646708,2163,2057,2108,398,-1837,16248,-29,-3,15
646709,2160,2056,2105,398,-1837,16248,-41,1,17
646710,2156,2054,2117,440,-1823,16346,-51,1,18
646712,2160,2053,2128,440,-1823,16346,-56,1,18
646713,2162,2055,2118,440,-1823,16346,-56,1,18
646714,2161,2054,2108,460,-1865,16383,-55,2,17
646715,2161,2057,2106,460,-1865,16383,-49,5,13
646717,2158,2054,2119,401,-1944,16354,-40,5,11
646718,2161,2055,2129,401,-1944,16354,-29,4,8
646719,2162,2054,2117,401,-1944,16354,-29,4,8
646721,2161,2055,2108,344,-1994,16276,-13,2,5
646722,2160,2059,2105,344,-1994,16276,4,-4,3
646723,2158,2057,2118,304,-2031,16136,18,-11,0
646724,2160,2052,2128,304,-2031,16136,31,-19,-6
646726,2160,2055,2114,304,-2031,16136,31,-19,-6
646727,2160,2057,2106,306,-1998,15988,45,-28,-10
646728,2160,2056,2104,306,-1998,15988,50,-37,-19
646730,2159,2056,2125,303,-1944,15944,52,-43,-23
646731,2163,2052,2125,303,-1944,15944,54,-49,-27
646733,2160,2055,2113,323,-1818,15993,51,-52,-30
646734,2160,2059,2105,323,-1818,15993,51,-52,-30
646735,2159,2057,2111,323,-1818,15993,42,-53,-34
646737,2160,2055,2128,340,-1745,16085,34,-53,-33
646738,2161,2054,2121,340,-1745,16085,22,-54,-33
646739,2165,2055,2112,364,-1662,16174,9,-53,-27
646741,2158,2059,2109,364,-1662,16174,0,-53,-27
646742,2157,2057,2116,364,-1662,16174,0,-53,-27
646743,2159,2053,2130,351,-1648,16377,-11,-45,-26
646745,2163,2054,2118,351,-1648,16377,-16,-34,-17
646746,2160,2056,2109,389,-1764,16437,-17,-22,-7
646748,2160,2056,2106,389,-1764,16437,-24,-20,1
646749,2155,2054,2118,390,-1933,16137,-27,-28,-1
646750,2161,2054,2129,390,-1933,16137,-27,-28,-1
646752,2163,2055,2117,390,-1933,16137,-29,-46,-4
646753,2160,2055,2104,351,-2052,16062,-33,-53,-11
646754,2161,2058,2107,351,-2052,16062,-30,-56,-14
646756,2157,2054,2126,358,-2086,16026,-15,-63,-14
646757,2163,2055,2123,358,-2086,16026,5,-67,-11
646758,2163,2054,2113,358,-2086,16026,5,-67,-11
646760,2158,2057,2106,531,-2098,16024,22,-70,-9
646761,2159,2058,2112,531,-2098,16024,30,-67,-10
646762,2158,2054,2129,627,-2094,16150,30,-63,-15
646764,2163,2052,2121,627,-2094,16150,25,-52,-22
646765,2160,2054,2111,663,-2007,16205,20,-44,-29
646767,2158,2057,2106,663,-2007,16205,20,-44,-29
646768,2158,2056,2116,663,-2007,16205,16,-37,-33
646769,2160,2055,2128,706,-1903,16177,8,-33,-36
646771,2165,2054,2118,706,-1903,16177,6,-34,-41
646772,2159,2055,2106,638,-1864,16260,3,-34,-42
646773,2159,2057,2105,638,-1864,16260,3,-36,-40
646775,2158,2056,2119,638,-1864,16260,3,-36,-40
646776,2160,2053,2129,571,-1902,16326,-1,-30,-39
646777,2164,2055,2114,571,-1902,16326,-4,-29,-34
646779,2160,2057,2105,540,-1954,16193,-6,-32,-34
646780,2160,2059,2107,540,-1954,16193,-7,-36,-34
646781,2159,2054,2126,507,-2000,16129,-9,-38,-37
646783,2162,2051,2123,507,-2000,16129,-9,-38,-37
646784,2160,2055,2111,507,-2000,16129,-14,-43,-38
646786,2157,2056,2107,526,-2069,16239,-15,-43,-33
646787,2159,2056,2113,526,-2069,16239,-15,-40,-29
646788,2163,2055,2130,582,-2081,16261,-11,-39,-22
646790,2160,2054,2118,582,-2081,16261,-8,-39,-16
646791,2162,2054,2111,582,-2081,16261,-8,-39,-16
646792,2161,2057,2104,651,-2073,16294,-6,-39,-14
646794,2158,2057,2119,651,-2073,16294,-5,-37,-15
646795,2161,2053,2129,662,-2087,16342,-7,-31,-19
646797,2162,2054,2116,662,-2087,16342,-8,-25,-15
646798,2160,2055,2107,677,-2108,16355,-10,-22,-14
646799,2159,2058,2106,677,-2108,16355,-10,-22,-14
646801,2158,2054,2126,677,-2108,16355,-9,-17,-13
646802,2163,2052,2124,677,-2114,16317,-6,-15,-11
646803,2163,2055,2114,677,-2114,16317,-1,-15,-10
646805,2160,2058,2105,631,-2080,16308,4,-15,-9
646806,2158,2058,2110,631,-2080,16308,8,-12,-10
646807,2158,2054,2128,631,-2080,16308,8,-12,-10
646809,2163,2053,2120,626,-2118,16291,11,-9,-8
646810,2163,2055,2109,626,-2118,16291,12,-7,-8
646811,2158,2057,2104,631,-2119,16230,17,-2,-4
646813,2160,2056,2113,631,-2119,16230,21,4,-1
646814,2159,2056,2129,631,-2119,16230,21,4,-1
646815,2163,2055,2120,615,-2087,16267,23,8,-1
646816,2162,2055,2113,615,-2087,16267,23,14,-3
646818,2161,2056,2104,603,-2042,16325,25,20,1
646819,2159,2056,2113,603,-2042,16325,24,22,3
646820,2158,2054,2128,603,-2042,16325,24,22,3
646822,2165,2055,2121,586,-1991,16345,24,18,-2
646823,2160,2054,2108,586,-1991,16345,29,16,-3
646824,2161,2056,2106,554,-1935,16285,30,11,-4
646826,2158,2056,2117,554,-1935,16285,29,8,-3
646827,2159,2054,2130,554,-1935,16285,29,8,-3
646828,2165,2052,2118,485,-1915,16306,29,9,1
646829,2160,2054,2112,485,-1915,16306,30,13,3
646831,2162,2056,2104,542,-1920,16312,30,17,7
646832,2157,2057,2110,542,-1920,16312,30,17,7
646833,2153,2056,2126,542,-1920,16312,29,19,11
646835,2167,2054,2121,556,-1903,16304,29,23,17
646836,2165,2055,2112,556,-1903,16304,29,29,14
646837,2159,2057,2105,510,-1937,16355,28,39,15
646838,2159,2057,2114,510,-1937,16355,28,39,15
646840,2156,2053,2129,510,-1937,16355,29,49,21
646841,2164,2057,2119,557,-1985,16190,35,53,28
646842,2167,2054,2111,557,-1985,16190,40,49,27
646844,2154,2056,2107,557,-1981,15904,48,38,27
646845,2155,2056,2115,557,-1981,15904,48,38,27
646846,2165,2054,2130,557,-1981,15904,50,23,22
646848,2161,2054,2119,462,-1992,15924,42,14,13
646849,2175,2057,2108,462,-1992,15924,36,12,4
646850,2154,2059,2108,479,-1931,16161,31,13,-1
646851,2157,2057,2114,479,-1931,16161,31,13,-1
646853,2171,2053,2131,479,-1931,16161,28,19,-2
646854,2111,2054,2119,603,-1762,16423,22,33,-4
646855,2193,2054,2111,603,-1762,16423,15,47,-9
646857,2174,2056,2108,675,-1487,16505,11,65,-18
646858,2171,2057,2120,675,-1487,16505,11,65,-18
646859,2161,2053,2129,675,-1487,16505,18,72,-34
646861,2125,2052,2115,773,-1181,15738,32,56,-53
646862,2168,2057,2105,773,-1181,15738,44,16,-73
646863,2169,2059,2108,551,-1400,14914,31,-27,-90
646865,2137,2054,2116,551,-1400,14914,-10,-63,-106
646866,2162,2053,2131,551,-1400,14914,-10,-63,-106
646868,2167,2052,2115,100,-1696,15017,-60,-91,-113
646869,2172,2057,2098,100,-1696,15017,-107,-115,-116
646870,2188,2057,2116,19,-1602,14847,-148,-154,-118
646872,2131,2052,2125,19,-1602,14847,-172,-212,-117
646873,2138,2053,2112,-14,-1745,14870,-200,-269,-108
646875,2200,2056,2112,-14,-1745,14870,-249,-301,-91
646876,2126,2059,2108,-159,-2072,15993,-312,-305,-74
646878,2166,2056,2123,-159,-2072,15993,-352,-306,-64
646879,2185,2051,2120,-159,-2072,15993,-352,-306,-64
646881,2164,2056,2112,220,-1711,16575,-351,-315,-59
646882,2184,2058,2113,220,-1711,16575,-321,-337,-60
646884,2082,2055,2109,748,-1569,16307,-275,-372,-68
646885,2156,2051,2135,748,-1569,16307,-242,-411,-84
646887,2216,2054,2120,768,-2210,15796,-237,-448,-96
646888,2134,2054,2096,768,-2210,15796,-271,-465,-99
646889,2224,2061,2113,502,-2807,16130,-325,-456,-104
646891,2203,2052,2125,502,-2807,16130,-352,-446,-114
646892,2162,2053,2133,479,-2270,16401,-320,-447,-114
646894,2175,2057,2111,479,-2270,16401,-320,-447,-114
646895,2144,2058,2099,479,-2270,16401,-229,-464,-113
646897,2177,2055,2123,313,-1708,15709,-120,-501,-116
646898,2112,2052,2132,313,-1708,15709,-52,-540,-117
646900,2164,2057,2102,-214,-1996,16271,-53,-563,-111
646901,2128,2059,2102,-214,-1996,16271,-94,-564,-100
646903,2119,2057,2102,-363,-1590,16903,-115,-565,-88
646904,2222,2045,2126,-363,-1590,16903,-88,-606,-73
646906,2118,2055,2124,57,-1160,15185,-56,-689,-55
646907,2146,2056,2109,57,-1160,15185,-56,-689,-55
646908,2144,2059,2105,57,-1160,15185,-76,-795,-31
646910,2171,2055,2120,-39,-1862,13929,-157,-890,-15
646911,2135,2051,2140,-39,-1862,13929,-274,-974,5
646913,2181,2057,2109,139,-2696,14373,-426,-1029,39
646914,2169,2061,2101,139,-2696,14373,-608,-1030,84
646915,2110,2058,2107,1334,-3065,16604,-786,-963,134
646917,2170,2051,2130,1334,-3065,16604,-936,-843,175
646918,2155,2052,2123,1334,-3065,16604,-936,-843,175
646920,2177,2057,2109,3635,-2733,19341,-1026,-675,214
646921,2127,2058,2097,3635,-2733,19341,-1071,-485,244
646923,2173,2055,2122,6464,-2881,20680,-1092,-264,256
646924,2112,2051,2135,6464,-2881,20680,-1103,-88,221
646926,2174,2056,2106,7010,-3374,19859,-1025,-30,127
646927,2174,2058,2107,7010,-3374,19859,-870,98,43
646929,2180,2055,2121,6276,-3841,18979,-662,230,-77
646930,2150,2045,2133,6276,-3841,18979,-470,234,-194
646932,2182,2054,2108,3478,-4539,16456,-271,235,-275
646933,2087,2056,2099,3478,-4539,16456,-46,262,-280
646935,2138,2058,2107,3478,-4539,16456,-46,262,-280
646936,2147,2044,2129,913,-5339,14548,169,249,-233
646937,2166,2053,2131,913,-5339,14548,369,214,-182
646939,2241,2057,2103,-632,-4984,12821,517,158,-136
646940,2082,2058,2104,-632,-4984,12821,616,72,-87
646942,2165,2054,2118,-724,-4367,12744,679,-33,-35
646943,2179,2043,2136,-724,-4367,12744,676,-115,-8
646945,2091,2055,2108,702,-3428,15219,628,-152,-1
646946,2172,2059,2094,702,-3428,15219,628,-152,-1
646947,2181,2059,2104,702,-3428,15219,571,-151,-1
646949,2134,2052,2130,2953,-2389,17096,519,-124,-10
646950,2229,2051,2129,2953,-2389,17096,455,-72,-39
646952,2150,2057,2107,4193,-1936,17401,378,-34,-73
646953,2099,2061,2108,4193,-1936,17401,375,-11,-91
646954,2239,2057,2122,3406,-1840,16955,408,14,-120
646956,2079,2043,2138,3406,-1840,16955,408,14,-120
646957,2106,2053,2116,3406,-1840,16955,426,42,-172
646959,2102,2058,2104,2105,-2285,15412,428,48,-188
646960,2131,2061,2100,2105,-2285,15412,391,39,-167
646962,2183,2052,2127,916,-3143,15033,318,29,-130
646963,2161,2051,2139,916,-3143,15033,254,21,-86
646964,2155,2057,2104,675,-2701,15189,207,5,-45
646966,2173,2061,2105,675,-2701,15189,207,5,-45
646967,2020,2061,2120,675,-2701,15189,159,-10,-10
646968,2222,2045,2129,1307,-2510,15606,84,-22,8
646970,2094,2052,2123,1307,-2510,15606,-6,-24,15
646971,2166,2057,2117,2054,-2485,16606,-86,-12,13
646972,2125,2060,2109,2054,-2485,16606,-138,-2,8
646974,2195,2054,2114,2054,-2485,16606,-138,-2,8
646975,2137,2038,2129,2523,-2449,16596,-151,-6,0
646977,2239,2054,2125,2523,-2449,16596,-137,-7,-9
646978,2158,2057,2097,2397,-2889,16739,-113,5,-16
646979,2188,2061,2106,2397,-2889,16739,-73,16,-23
646981,2178,2053,2125,1935,-3314,16522,-12,23,-22
646982,2119,2044,2143,1935,-3314,16522,56,12,-10
646983,2199,2056,2113,1935,-3314,16522,56,12,-10
646985,2153,2061,2096,1432,-3735,15184,113,-20,8
646986,2250,2059,2105,1432,-3735,15184,174,-50,21
646988,1993,2042,2121,1184,-3322,15464,251,-52,24
646989,2155,2050,2122,1184,-3322,15464,326,-25,24
646990,2140,2059,2115,1825,-3031,16310,372,-6,24
646992,2195,2059,2089,1825,-3031,16310,372,-6,24
646993,2172,2054,2120,1825,-3031,16310,394,4,23
646994,2207,2040,2136,2443,-2820,17087,403,39,26
646996,2136,2053,2119,2443,-2820,17087,397,107,34
646997,2167,2060,2104,2592,-2694,17023,373,160,48
646999,2142,2060,2108,2592,-2694,17023,358,161,46
647000,2173,2053,2124,2592,-2694,17023,358,161,46
647001,2116,2052,2138,2064,-2148,15095,378,123,24
647003,2129,2057,2116,2064,-2148,15095,426,79,1
647004,2204,2062,2104,1323,-2011,15023,468,39,-6
647005,2078,2056,2078,1323,-2011,15023,471,19,-3
647007,2213,2043,2116,1365,-2295,15861,440,20,11
647008,2168,2051,2140,1365,-2295,15861,440,20,11
647010,2180,2059,2102,1365,-2295,15861,387,32,23
647011,2124,2063,2106,2211,-1766,16092,339,42,18
647012,2130,2057,2115,2211,-1766,16092,311,50,4
647014,2179,2041,2134,2786,-1071,16407,282,63,-17
647015,2058,2053,2122,2786,-1071,16407,238,75,-46
647016,2133,2061,2107,2457,-1006,16357,190,72,-80
647018,2171,2061,2097,2457,-1006,16357,190,72,-80
647019,2185,2053,2119,2457,-1006,16357,119,76,-103
647021,2157,2042,2144,1608,-1617,16261,25,79,-106
647022,2159,2056,2116,1608,-1617,16261,-40,58,-89
647023,2201,2063,2086,930,-1764,15851,-60,40,-60
647025,2279,2060,2097,930,-1764,15851,-75,45,-29
647026,2027,2045,2123,930,-1764,15851,-75,45,-29
647027,2175,2051,2139,1002,-1897,16220,-92,48,-9
647029,2198,2058,2109,1002,-1897,16220,-103,46,-1
647030,2139,2063,2105,1482,-1942,16181,-102,33,2
647032,2288,2057,2113,1482,-1942,16181,-98,24,4
647033,2086,2042,2141,1747,-1960,16383,-91,24,-5
647034,2198,2053,2131,1747,-1960,16383,-91,24,-5
647036,2207,2061,2108,1747,-1960,16383,-78,22,-8
647037,2162,2059,2100,1817,-2070,16287,-54,14,-6
647038,2154,2053,2120,1817,-2070,16287,-23,10,-15
647040,2193,2041,2141,1774,-2195,16456,2,20,-24
647041,2156,2053,2115,1774,-2195,16456,7,22,-31
647042,2176,2061,2086,1774,-2195,16456,7,22,-31
647044,2247,2062,2100,1705,-2214,16068,30,14,-37
647045,2079,2053,2123,1705,-2214,16068,68,11,-40
647046,2231,2043,2150,1636,-2199,16014,92,6,-39
647048,2125,2056,2114,1636,-2199,16014,109,-2,-31
647049,2183,2063,2101,1648,-2230,16137,127,-4,-23
647051,2157,2058,2106,1648,-2230,16137,127,-4,-23
647052,2168,2043,2135,1648,-2230,16137,135,5,-20
647053,2080,2052,2133,1842,-2133,16213,136,16,-25
647055,2133,2058,2101,1842,-2133,16213,143,13,-31
647056,2172,2061,2101,1984,-1959,16117,157,9,-38
647058,2122,2054,2119,1984,-1959,16117,164,14,-40
647059,2184,2040,2138,1871,-2018,16331,165,23,-37
647060,2132,2052,2129,1871,-2018,16331,165,23,-37
647062,2198,2061,2094,1871,-2018,16331,162,40,-25
647063,2123,2061,2106,1831,-2077,16254,143,49,-11
647064,2170,2051,2125,1831,-2077,16254,125,42,-2
647066,2196,2043,2137,1630,-1919,16192,102,41,-4
647067,2247,2056,2117,1630,-1919,16192,70,41,-4
647069,2173,2062,2109,1630,-1919,16192,70,41,-4
647070,2168,2060,2106,1450,-1857,16072,42,37,-2
647071,2165,2043,2130,1450,-1857,16072,32,28,3
647073,2107,2050,2137,1461,-1881,15857,22,20,12
647074,2203,2059,2104,1461,-1881,15857,1,15,23
647075,2160,2063,2097,1609,-1920,15746,-16,10,28
647077,2139,2059,2116,1609,-1920,15746,-16,10,28
647078,2101,2040,2124,1609,-1920,15746,-26,4,24
647079,2194,2053,2127,1875,-1872,15808,-36,4,22
647081,2176,2058,2103,1875,-1872,15808,-44,7,16
647082,2152,2060,2100,2046,-1862,16005,-46,17,5
647083,2205,2054,2108,2046,-1862,16005,-46,17,5
647085,2207,2040,2141,2046,-1862,16005,-43,16,-5
647086,2052,2055,2136,1948,-1994,15953,-36,13,-10
647087,2174,2058,2099,1948,-1994,15953,-28,15,-9
647089,2158,2063,2111,1706,-2151,16066,-14,20,-8
647090,2161,2052,2130,1706,-2151,16066,7,18,-6
647091,2109,2043,2149,1706,-2151,16066,7,18,-6
647093,2155,2054,2118,1641,-2221,16080,27,10,0
647094,2252,2058,2101,1641,-2221,16080,46,0,-3
647095,2154,2060,2103,1638,-2175,15968,62,-14,-4
647097,2178,2051,2120,1638,-2175,15968,77,-19,-7
647098,2158,2042,2145,1681,-2149,16060,83,-17,-10
647099,2106,2056,2107,1681,-2149,16060,83,-17,-10
647101,2090,2064,2104,1681,-2149,16060,85,-21,-7
647102,2169,2058,2107,1778,-1962,16019,90,-25,-6
647104,2207,2043,2129,1778,-1962,16019,100,-23,-7
647105,2184,2050,2129,1785,-1859,16147,102,-15,-6
647106,2164,2058,2101,1785,-1859,16147,79,-2,-2
647108,2163,2061,2107,1785,-1859,16147,79,-2,-2
647109,2175,2054,2116,1838,-1923,16194,41,7,8
647110,2171,2042,2135,1838,-1923,16194,7,12,11
647112,2180,2051,2126,1856,-1786,16092,-13,16,12
647113,2166,2061,2103,1856,-1786,16092,-29,24,10
647114,2121,2061,2108,1838,-1803,16166,-43,25,7
647116,2130,2055,2119,1838,-1803,16166,-43,25,7
647117,2142,2042,2137,1838,-1803,16166,-45,22,1
647118,2133,2052,2120,1842,-1737,16065,-33,19,-5
647120,2166,2060,2111,1842,-1737,16065,5,13,-13
647121,2141,2060,2102,1751,-1673,16034,47,3,-16
647122,2149,2050,2116,1751,-1673,16034,47,3,-16
647124,2193,2042,2141,1751,-1673,16034,73,-9,-16
647125,2164,2055,2110,1530,-1940,16264,68,-15,-14
647126,2161,2062,2106,1530,-1940,16264,50,-17,-15
647128,2157,2060,2108,1373,-1889,16236,47,-31,-17
647129,2123,2042,2133,1373,-1889,16236,48,-45,-13
647131,2207,2045,2133,1231,-1952,15986,50,-55,-3
647132,2071,2060,2098,1231,-1952,15986,50,-55,-3
647133,2232,2062,2096,1231,-1952,15986,53,-65,15
647135,2140,2055,2115,1290,-2025,16074,58,-63,33
647136,2179,2041,2133,1290,-2025,16074,71,-61,47
647137,2161,2052,2123,1641,-1769,16125,86,-62,52
647139,2162,2059,2105,1641,-1769,16125,85,-62,45
647140,2146,2060,2100,1641,-1769,16125,85,-62,45
647142,2163,2055,2119,1889,-1589,16025,74,-69,32
647143,2160,2042,2142,1889,-1589,16025,53,-74,15
647144,2167,2055,2113,1883,-1516,15996,28,-73,2
647146,2158,2061,2100,1883,-1516,15996,1,-74,-3
647147,2156,2061,2105,1844,-1539,15955,-22,-82,-9
647148,2156,2044,2124,1844,-1539,15955,-22,-82,-9
647150,2194,2050,2134,1844,-1539,15955,-45,-99,-14
647151,2134,2056,2106,1771,-1576,15872,-65,-114,-19
647153,2162,2060,2104,1771,-1576,15872,-93,-117,-25
647154,2159,2056,2115,1701,-1658,16157,-121,-115,-33
647155,2159,2040,2137,1701,-1658,16157,-135,-107,-40
647157,2164,2054,2119,1718,-1666,16353,-124,-105,-40
647158,2159,2061,2101,1718,-1666,16353,-100,-99,-34
647160,2167,2061,2109,1718,-1666,16353,-100,-99,-34
647161,2133,2043,2124,1569,-1941,16025,-76,-93,-21
647163,2177,2044,2129,1569,-1941,16025,-63,-90,-2
647164,2177,2059,2102,1518,-2300,16009,-73,-88,11
647166,2163,2063,2102,1518,-2300,16009,-91,-94,22
647167,2158,2055,2117,1520,-2512,16079,-113,-98,35
647168,2169,2041,2135,1520,-2512,16079,-127,-104,47
647170,2165,2054,2119,1750,-2410,16252,-134,-101,51
647171,2162,2060,2103,1750,-2410,16252,-134,-101,51
647173,2162,2062,2105,1750,-2410,16252,-133,-95,51
647174,2151,2045,2124,2041,-2386,16123,-136,-92,52
647176,2185,2044,2130,2041,-2386,16123,-164,-74,49
647177,2159,2059,2107,2172,-2279,16066,-183,-43,42
647178,2160,2063,2102,2172,-2279,16066,-181,-1,27
647180,2159,2055,2117,2435,-1977,16247,-169,46,11
647181,2161,2041,2134,2435,-1977,16247,-169,46,11
647183,2162,2054,2123,2435,-1977,16247,-155,98,-1
647184,2158,2059,2105,2642,-1961,16479,-143,146,2
647185,2160,2060,2102,2642,-1961,16479,-142,179,13
647187,2159,2052,2122,2543,-1868,16275,-164,205,18
647188,2163,2044,2139,2543,-1868,16275,-190,225,20
647190,2161,2056,2106,2268,-1604,16018,-215,238,20
647191,2160,2062,2101,2268,-1604,16018,-245,248,14
647192,2154,2057,2113,2268,-1604,16018,-245,248,14
647194,2156,2040,2130,2043,-1610,16480,-286,273,11
647195,2165,2053,2125,2043,-1610,16480,-324,299,10
647197,2159,2058,2105,2019,-1790,16636,-350,315,12
647198,2159,2058,2102,2019,-1790,16636,-354,311,21
647199,2157,2052,2121,1901,-1973,16061,-331,303,28
647201,2162,2045,2139,1901,-1973,16061,-295,296,24
647202,2162,2056,2108,1901,-1973,16061,-295,296,24
647204,2160,2062,2103,1627,-2172,15739,-254,284,11
647205,2158,2061,2111,1627,-2172,15739,-216,278,-5
647207,2159,2042,2131,1412,-2473,15752,-171,273,-20
647208,2165,2054,2126,1412,-2473,15752,-125,277,-29
647209,2160,2059,2107,1313,-2561,16125,-81,284,-34
647211,2158,2058,2103,1313,-2561,16125,-33,293,-36
647212,2157,2054,2119,1235,-2613,16673,2,311,-32
647214,2160,2045,2138,1235,-2613,16673,2,311,-32
647215,2162,2055,2111,1235,-2613,16673,31,327,-26
647216,2161,2060,2102,1206,-2461,16632,58,339,-22
647218,2158,2058,2107,1206,-2461,16632,97,343,-25
647219,2156,2051,2126,1151,-2144,16700,145,342,-30
647221,2165,2051,2128,1151,-2144,16700,190,346,-34
647222,2160,2056,2109,962,-2254,16974,228,352,-33
647223,2161,2060,2106,962,-2254,16974,228,352,-33
647225,2158,2054,2116,962,-2254,16974,255,358,-26
647226,2155,2042,2133,755,-2521,16518,265,365,-11
647228,2164,2054,2118,755,-2521,16518,263,364,-2
647229,2161,2057,2106,568,-2550,16029,270,353,6
647230,2160,2060,2104,568,-2550,16029,278,350,13
647232,2159,2054,2120,568,-2550,16029,278,350,13
647233,2161,2053,2134,425,-2485,16365,292,358,24
647234,2163,2054,2110,425,-2485,16365,316,371,45
647236,2161,2058,2102,529,-2502,16150,341,368,69
647237,2160,2061,2106,529,-2502,16150,361,339,86
647238,2156,2053,2124,692,-2312,15084,373,285,85
647240,2163,2053,2127,692,-2312,15084,373,285,85
647241,2160,2057,2109,692,-2312,15084,371,218,59
647243,2160,2059,2105,618,-1806,14708,359,158,16
647244,2157,2057,2112,618,-1806,14708,341,112,-33
647245,2156,2051,2131,657,-1371,15211,316,90,-72
647247,2163,2053,2120,657,-1371,15211,286,88,-96
647248,2161,2054,2108,1060,-1094,15825,244,100,-105
647249,2159,2059,2105,1060,-1094,15825,244,100,-105
647251,2159,2055,2118,1060,-1094,15825,202,118,-102
647252,2161,2052,2130,1506,-899,15990,158,137,-96
647254,2161,2056,2108,1506,-899,15990,107,155,-96
647255,2163,2058,2103,1694,-817,15895,55,167,-107
647257,2158,2059,2111,1694,-817,15895,-4,173,-125
647258,2158,2052,2127,1530,-1014,15699,-64,175,-151
647259,2163,2052,2123,1530,-1014,15699,-64,175,-151
647261,2160,2055,2109,1530,-1014,15699,-116,178,-177
647262,2159,2057,2107,1155,-1267,15587,-150,168,-206
647264,2159,2056,2118,1155,-1267,15587,-161,157,-229
647265,2160,2055,2129,832,-1596,15539,-152,138,-243
647267,2162,2057,2110,832,-1596,15539,-135,110,-247
647268,2161,2057,2106,617,-2000,15661,-112,80,-245
647270,2158,2057,2112,617,-2000,15661,-88,53,-245
647271,2157,2055,2127,500,-2236,15822,-58,27,-248
647272,2162,2054,2120,500,-2236,15822,-58,27,-248
647274,2160,2054,2111,500,-2236,15822,-31,-7,-254
647275,2159,2056,2108,504,-2278,15932,-7,-38,-268
647277,2159,2057,2118,504,-2278,15932,16,-64,-281
647278,2159,2055,2126,511,-2392,16154,32,-84,-282
647279,2163,2054,2114,511,-2392,16154,36,-95,-275
647281,2158,2056,2109,521,-2483,16462,32,-100,-265
647282,2161,2056,2110,521,-2483,16462,32,-100,-265
647284,2157,2054,2123,521,-2483,16462,29,-103,-239
647285,2162,2055,2123,577,-2360,16716,25,-100,-210
647286,2165,2055,2115,577,-2360,16716,22,-92,-188
647288,2154,2055,2104,677,-2316,16897,15,-81,-167
647289,2157,2056,2118,677,-2316,16897,-5,-72,-135
647291,2161,2054,2129,763,-2548,17250,-22,-54,-92
647292,2163,2054,2118,763,-2548,17250,-22,-54,-92
647293,2162,2053,2112,763,-2548,17250,-32,-32,-44
647295,2157,2057,2108,924,-2718,16876,-35,-27,1
647296,2161,2054,2120,924,-2718,16876,-29,-44,33
647297,2160,2055,2127,1017,-2965,16032,-29,-74,47
647299,2205,2054,2115,1017,-2965,16032,-43,-103,48
647300,2159,2056,2106,1093,-3095,15713,-58,-121,44
647302,2156,2057,2112,1093,-3095,15713,-58,-121,44
647303,2159,2057,2127,1093,-3095,15713,-78,-127,1
647304,2162,2055,2120,1407,-2860,15884,-71,-107,-63
647306,2160,2054,2110,1407,-2860,15884,-45,-86,-36
647307,2158,2055,2109,1219,-3499,16131,-34,-78,64
647309,2159,2056,2116,1219,-3499,16131,-26,-77,130
647310,2160,2055,2126,1090,-2631,16561,-19,-68,121
647312,2163,2054,2114,1090,-2631,16561,-19,-68,121
647313,2163,2052,2107,1090,-2631,16561,-12,-48,85
647314,2158,2057,2111,932,-2224,16922,-11,-35,74
647316,2158,2056,2124,932,-2224,16922,-8,-38,94
647317,2162,2052,2122,746,-2045,16928,-1,-56,99
647318,2162,2055,2114,746,-2045,16928,14,-68,73
647320,2160,2057,2107,746,-2045,16928,14,-68,73
647321,2159,2056,2112,618,-1654,16996,44,-72,65
647322,2158,2057,2127,618,-1654,16996,82,-68,85
647324,2160,2054,2121,536,-1674,16986,113,-62,98
647325,2163,2055,2113,536,-1674,16986,133,-51,101
647326,2160,2057,2109,580,-1592,16946,137,-32,102
647328,2159,2058,2116,580,-1592,16946,137,-32,102
647329,2156,2054,2124,580,-1592,16946,138,-6,102
647331,2162,2054,2117,611,-1347,16945,130,21,83
647332,2162,2055,2110,611,-1347,16945,118,52,63
647333,2158,2057,2106,650,-1186,16893,108,79,54
647335,2159,2057,2120,650,-1186,16893,100,105,48
647336,2158,2052,2126,650,-1186,16893,100,105,48
647337,2161,2053,2115,624,-1136,16851,94,129,48
647339,2161,2054,2105,624,-1136,16851,86,148,48
647340,2158,2056,2107,575,-1137,16733,77,165,45
647341,2159,2055,2124,575,-1137,16733,66,175,42
647343,2161,2055,2122,482,-1192,16643,56,185,42
647344,2160,2055,2114,482,-1192,16643,56,185,42
647345,2160,2056,2107,482,-1192,16643,47,191,41
647347,2156,2057,2110,446,-1367,16582,50,198,41
647348,2159,2057,2126,446,-1367,16582,57,209,47
647349,2162,2054,2121,457,-1602,16393,67,217,51
647351,2163,2055,2112,457,-1602,16393,67,217,51
647352,2161,2057,2107,457,-1602,16393,73,219,55
647353,2156,2058,2113,501,-1765,15952,80,212,51
647355,2156,2054,2128,501,-1765,15952,88,198,40
647356,2165,2055,2120,477,-1854,15671,93,181,31
647357,2156,2054,2110,477,-1854,15671,100,165,20
647359,2164,2056,2107,477,-1854,15671,100,165,20
647360,2159,2056,2118,490,-1896,15654,108,146,7
647361,2158,2053,2127,490,-1896,15654,119,128,4
647363,2159,2054,2116,569,-1912,15528,130,110,4
647364,2166,2055,2108,569,-1912,15528,143,93,1
647365,2156,2055,2107,569,-1912,15528,143,93,1
647367,2159,2054,2118,671,-1830,15341,149,72,0
647368,2161,2054,2126,671,-1830,15341,143,51,-9
647369,2162,2052,2116,762,-1768,15347,128,34,-24
647371,2162,2054,2108,762,-1768,15347,108,24,-40
647372,2160,2059,2107,792,-1649,15516,96,15,-54
647373,2159,2056,2122,792,-1649,15516,96,15,-54
647375,2160,2052,2123,792,-1649,15516,84,9,-60
647376,2163,2055,2116,828,-1749,15655,70,6,-52
647377,2163,2055,2105,828,-1749,15655,46,3,-42
647379,2159,2057,2107,803,-1735,15872,27,-1,-40
647380,2158,2054,2124,803,-1735,15872,27,-1,-40
647381,2162,2054,2122,803,-1735,15872,22,1,-46
647383,2163,2054,2112,741,-1645,16047,24,4,-49
647384,2162,2054,2107,741,-1645,16047,26,-2,-44
647385,2153,2056,2113,728,-1769,16012,23,-10,-37
647387,2163,2055,2126,728,-1769,16012,18,-19,-41
647388,2162,2054,2123,728,-1769,16012,18,-19,-41
647389,2161,2055,2112,704,-1705,16019,13,-33,-49
647391,2161,2057,2108,704,-1705,16019,8,-52,-65
647392,2159,2056,2114,663,-1562,16168,4,-63,-81
647393,2159,2055,2129,663,-1562,16168,5,-68,-88
647395,2158,2054,2116,663,-1562,16168,5,-68,-88
647396,2166,2054,2110,669,-1570,16245,3,-70,-88
647397,2156,2056,2107,669,-1570,16245,-3,-71,-85
647399,2155,2055,2119,680,-1610,16313,-14,-68,-76
647400,2152,2053,2127,680,-1610,16313,-32,-56,-70
647402,2162,2054,2116,666,-1631,16419,-50,-42,-66
647403,2164,2054,2107,666,-1631,16419,-50,-42,-66
647404,2161,2055,2109,666,-1631,16419,-65,-29,-64
647406,2157,2054,2124,750,-1673,16168,-73,-29,-60
647407,2162,2055,2124,750,-1673,16168,-80,-38,-57
647408,2163,2055,2111,718,-1792,15950,-91,-50,-52
647410,2160,2054,2109,718,-1792,15950,-102,-59,-48
647411,2163,2056,2116,591,-1950,16155,-111,-61,-46
647413,2158,2053,2129,591,-1950,16155,-111,-61,-46
647414,2154,2054,2116,591,-1950,16155,-116,-58,-40
647416,2166,2055,2110,588,-2018,16418,-113,-51,-33
647417,2163,2056,2108,588,-2018,16418,-100,-41,-24
647418,2158,2057,2122,678,-2107,16537,-83,-32,-9
647420,2159,2054,2122,678,-2107,16537,-63,-23,0
647421,2164,2054,2113,756,-2212,16378,-40,-20,11
647422,2160,2054,2107,756,-2212,16378,-40,-20,11
647424,2160,2059,2110,756,-2212,16378,-22,-21,18
647425,2156,2055,2126,696,-2303,16289,-8,-27,17
647427,2160,2055,2120,696,-2303,16289,-3,-25,19
647428,2160,2055,2114,599,-2270,16416,0,-19,18
647429,2165,2056,2107,599,-2270,16416,8,-16,21
647430,2159,2057,2109,599,-2270,16416,8,-16,21
647432,2142,2054,2129,590,-2159,16395,25,-16,29
647433,2169,2055,2121,590,-2159,16395,36,-13,34
647434,2163,2055,2111,587,-1975,16468,50,-6,42
647436,2163,2059,2110,587,-1975,16468,67,-3,47
647437,2156,2056,2113,587,-1975,16468,67,-3,47
647438,2156,2055,2128,633,-1798,16460,77,-2,53
647440,2160,2055,2120,633,-1798,16460,88,1,58
647441,2168,2055,2111,746,-1805,16377,90,5,58
647442,2157,2055,2109,746,-1805,16377,82,8,58
647443,2151,2056,2114,746,-1805,16377,82,8,58
647445,2162,2054,2129,753,-1749,16375,71,15,55
647446,2164,2054,2119,753,-1749,16375,57,15,47
647447,2161,2055,2111,699,-1609,16306,53,11,36
647449,2163,2058,2108,699,-1609,16306,54,13,30
647450,2155,2057,2117,699,-1609,16306,54,13,30
647451,2158,2052,2130,654,-1558,16269,59,16,22
647453,2163,2054,2119,654,-1558,16269,61,23,19
647454,2159,2055,2110,596,-1597,16304,58,31,22
647455,2154,2057,2107,596,-1597,16304,53,39,26
647457,2162,2056,2117,596,-1597,16304,53,39,26
647458,2158,2052,2124,505,-1594,16262,44,43,29
647459,2166,2054,2118,505,-1594,16262,31,45,27
647460,2165,2054,2111,436,-1598,16275,19,42,27
647462,2154,2056,2108,436,-1598,16275,9,36,23
647463,2159,2056,2117,436,-1598,16275,9,36,23
647464,2160,2053,2127,405,-1547,16333,-1,32,25
647466,2165,2052,2117,405,-1547,16333,-6,28,29
647467,2161,2057,2108,442,-1483,16293,-1,24,29
647468,2153,2056,2106,442,-1483,16293,7,20,30
647470,2163,2056,2118,442,-1483,16293,7,20,30
647471,2159,2052,2126,584,-1559,16083,5,13,35
647472,2162,2055,2116,584,-1559,16083,-12,5,37
647473,2162,2057,2109,600,-1721,16046,-32,-1,31
647475,2160,2056,2107,600,-1721,16046,-46,-1,18
647476,2156,2055,2119,600,-1721,16046,-46,-1,18
647477,2159,2053,2129,603,-1656,16118,-47,-3,11
647479,2161,2057,2114,603,-1656,16118,-42,-4,7
647480,2162,2055,2107,580,-1652,16215,-33,0,4
647481,2163,2056,2107,580,-1652,16215,-19,1,3
647483,2158,2057,2121,580,-1652,16215,-19,1,3
647484,2160,2053,2126,538,-1643,16317,-6,11,4
647485,2163,2055,2115,538,-1643,16317,4,22,7
647486,2163,2056,2108,565,-1764,16350,3,28,14
647488,2165,2056,2106,565,-1764,16350,3,28,14
647489,2152,2057,2118,565,-1764,16350,-3,34,15
647490,2160,2055,2129,593,-1753,16293,-4,40,11
647492,2165,2054,2116,593,-1753,16293,-1,37,2
647493,2161,2056,2109,619,-1738,16199,6,32,-6
647494,2160,2056,2107,619,-1738,16199,6,32,-6
647495,2165,2057,2120,619,-1738,16199,16,25,-8
647497,2160,2053,2127,592,-1800,16184,25,22,-12
647498,2153,2054,2116,592,-1800,16184,28,20,-14
647499,2162,2056,2105,542,-1783,16172,36,23,-17
647501,2163,2058,2108,542,-1783,16172,36,23,-17
647502,2155,2055,2122,542,-1783,16172,47,25,-22
647503,2164,2052,2124,531,-1630,16179,62,25,-26
647505,2163,2054,2114,531,-1630,16179,74,25,-29
647506,2162,2056,2106,565,-1602,16144,81,25,-25
647507,2159,2056,2108,565,-1602,16144,77,27,-22
647509,2157,2054,2127,565,-1602,16144,77,27,-22
647510,2162,2055,2122,570,-1632,16033,66,22,-23
647511,2162,2057,2114,570,-1632,16033,49,18,-23
647513,2155,2057,2106,489,-1635,15898,29,14,-25
647514,2159,2057,2114,489,-1635,15898,9,6,-23
647515,2159,2055,2127,489,-1635,15898,9,6,-23
647517,2163,2054,2120,430,-1619,15952,-9,0,-25
647518,2160,2054,2115,430,-1619,15952,-26,-11,-24
647519,2169,2055,2106,430,-1659,16030,-36,-20,-19
647521,2145,2057,2113,430,-1659,16030,-45,-30,-14
647522,2163,2053,2131,469,-1718,16189,-54,-35,-7
647524,2163,2054,2119,469,-1718,16189,-54,-35,-7
647525,2164,2054,2108,469,-1718,16189,-63,-34,-3
647526,2203,2056,2106,578,-1876,16335,-67,-32,0
647528,2158,2056,2119,578,-1876,16335,-71,-32,7
647529,2161,2052,2127,719,-1971,16094,-65,-40,7
647530,2163,2055,2115,719,-1971,16094,-59,-48,5
647532,2160,2055,2106,719,-1971,16094,-59,-48,5
647533,2163,2056,2106,662,-1995,15977,-45,-58,2
647534,2157,2055,2122,662,-1995,15977,-34,-59,-2
647536,2159,2050,2124,634,-2037,16161,-23,-54,-6
647537,2161,2055,2115,634,-2037,16161,-5,-46,-4
647538,2168,2057,2106,634,-2037,16161,-5,-46,-4
647540,2163,2056,2108,692,-2023,16380,10,-34,3
647541,2150,2055,2127,692,-2023,16380,23,-20,14
647542,2164,2055,2121,792,-1925,16398,35,-8,18
647544,2150,2057,2115,792,-1925,16398,41,0,21
647545,2150,2056,2106,800,-1830,16202,46,0,20
647546,2165,2056,2112,800,-1830,16202,46,0,20
647547,2160,2053,2124,800,-1830,16202,48,-4,11
647549,2164,2054,2121,721,-1775,16188,40,-9,1
647550,2163,2057,2115,721,-1775,16188,31,-14,-7
647551,2155,2057,2105,721,-1775,16188,31,-14,-7
647553,2158,2056,2114,621,-1686,16162,22,-19,-13
647554,2163,2055,2126,621,-1686,16162,13,-27,-10
647555,2148,2055,2121,551,-1688,16099,11,-30,-7
647557,2168,2054,2108,551,-1688,16099,1,-33,-1
647558,2158,2057,2109,489,-1723,16213,-16,-30,3
647559,2161,2057,2118,489,-1723,16213,-16,-30,3
647561,2150,2052,2130,489,-1723,16213,-21,-26,8
647562,2166,2055,2118,498,-1693,16275,-21,-21,8
647563,2165,2056,2107,498,-1693,16275,-25,-18,9
647565,2172,2056,2105,509,-1745,16413,-28,-11,13
647566,2166,2056,2118,509,-1745,16413,-29,-4,17
647567,2149,2052,2126,509,-1745,16413,-29,-4,17
647569,2140,2055,2115,524,-1705,16636,-25,6,21
647570,2168,2057,2108,524,-1705,16636,-12,15,25
647571,2154,2058,2108,558,-1676,16478,8,15,28
647573,2177,2057,2115,558,-1676,16478,23,9,26
647574,2147,2052,2126,558,-1676,16478,23,9,26
647575,2153,2057,2114,575,-1721,16025,31,-7,20
647577,2144,2054,2107,575,-1721,16025,35,-24,16
647578,2167,2056,2107,446,-1870,15816,28,-39,10
647579,2142,2057,2120,446,-1870,15816,14,-48,3
647581,2194,2052,2125,446,-1870,15816,14,-48,3
647582,2166,2056,2113,337,-1823,15972,7,-49,-3
647583,2158,2057,2108,337,-1823,15972,5,-51,-4
647584,2128,2058,2110,374,-1749,16098,5,-55,6
647586,2155,2055,2124,374,-1749,16098,5,-56,21
647587,2172,2052,2127,374,-1749,16098,5,-56,21
647588,2164,2054,2113,442,-1747,16193,0,-59,36
647590,2147,2059,2105,442,-1747,16193,-8,-59,43
647591,2150,2056,2109,468,-1693,16413,-18,-52,43
647592,2170,2053,2122,468,-1693,16413,-23,-48,40
647594,2140,2055,2122,468,-1693,16413,-23,-48,40
647595,2188,2054,2113,512,-1568,16591,-20,-41,32
647596,2135,2057,2114,512,-1568,16591,-15,-29,26
647598,2206,2057,2114,618,-1531,16538,-1,-12,27
647599,2170,2055,2123,618,-1531,16538,14,-5,28
647600,2158,2054,2123,785,-1647,16265,30,-5,33
647602,2135,2055,2113,785,-1647,16265,30,-5,33
647603,2156,2056,2108,785,-1647,16265,31,-5,30
647604,2142,2054,2116,781,-1743,16057,22,-4,23
647606,2151,2053,2127,781,-1743,16057,5,-1,18
647607,2165,2054,2121,705,-1835,16128,-17,3,15
647608,2162,2057,2108,705,-1835,16128,-17,3,15
647610,2166,2057,2106,705,-1835,16128,-46,8,12
647611,2160,2056,2117,699,-1890,16327,-67,10,14
647612,2099,2053,2136,699,-1890,16327,-74,12,14
647614,2256,2052,2111,733,-1696,16556,-65,17,9
647615,2144,2057,2108,733,-1696,16556,-65,17,9
647616,2148,2056,2109,733,-1696,16556,-47,22,3
647617,2151,2055,2117,815,-1739,16670,-32,28,6
647619,2154,2052,2128,815,-1739,16670,-26,38,10
647620,2182,2054,2118,751,-1910,16710,-28,52,10
647621,2138,2056,2113,751,-1910,16710,-28,52,10
647623,2236,2058,2103,751,-1910,16710,-28,65,14
647624,2146,2056,2120,636,-1847,16630,-13,77,15
647625,2198,2053,2128,636,-1847,16630,4,83,14
647627,2134,2054,2111,606,-1762,16449,24,85,11
647628,2177,2055,2111,606,-1762,16449,42,90,4
647629,2147,2058,2107,606,-1762,16449,42,90,4
647631,2151,2057,2121,562,-1601,16457,64,93,-6
647632,2151,2052,2125,562,-1601,16457,96,95,-14
647633,2168,2055,2117,629,-1457,16244,126,95,-18
647635,2154,2054,2106,629,-1457,16244,144,95,-19
647636,2158,2057,2109,629,-1457,16244,144,95,-19
647637,2092,2055,2137,667,-1725,16016,143,97,-13
647639,2274,2053,2105,667,-1725,16016,126,93,-8
647640,2162,2055,2114,529,-1845,16052,99,90,-12
647641,2146,2057,2107,529,-1845,16052,72,94,-21
647643,2144,2056,2113,529,-1845,16052,72,94,-21
647644,2156,2054,2131,379,-1725,16061,57,98,-30
647645,2151,2055,2123,379,-1725,16061,53,94,-32
647647,2165,2055,2117,321,-1707,15952,54,86,-29
647648,2165,2058,2113,321,-1707,15952,57,73,-25
647649,2163,2056,2119,260,-1710,16091,55,63,-16
647651,2152,2053,2125,260,-1710,16091,55,63,-16
647652,2109,2053,2110,260,-1710,16091,50,63,-7
647653,2212,2057,2113,222,-1741,16319,53,72,8
647655,2195,2057,2115,222,-1741,16319,48,88,28
647656,2142,2055,2105,371,-1822,16153,39,96,45
647657,2161,2053,2128,371,-1822,16153,39,96,45
647659,2200,2055,2150,371,-1822,16153,29,87,53
647660,2193,2056,2138,569,-1682,15871,25,66,48
647661,2145,2058,2092,569,-1682,15871,21,39,32
647662,2153,2057,2120,561,-1610,15900,16,16,15
647664,2149,2051,2124,561,-1610,15900,16,16,15
647665,2125,2054,2134,561,-1610,15900,9,3,-1
647666,2199,2055,2134,542,-1541,16054,-4,-8,-23
647668,2128,2059,2079,542,-1541,16054,-13,-24,-47
647669,2217,2055,2151,617,-1317,16019,-5,-38,-65
647670,2178,2045,2097,617,-1317,16019,13,-58,-77
647672,2113,2055,2117,617,-1317,16019,13,-58,-77
647673,2166,2057,2097,613,-1465,15717,17,-81,-78
647675,2182,2059,2078,613,-1465,15717,-14,-94,-69
647676,2181,2052,2152,363,-1772,15867,-74,-92,-69
647677,2163,2055,2124,363,-1772,15867,-125,-88,-88
647679,2151,2057,2096,203,-1329,16137,-145,-95,-112
647680,2143,2057,2070,203,-1329,16137,-145,-95,-112
647682,2135,2057,2153,203,-1329,16137,-126,-117,-129
647683,2181,2050,2108,93,-1210,16044,-93,-143,-124
647684,2128,2055,2125,93,-1210,16044,-69,-157,-101
647686,2176,2057,2089,8,-1605,16156,-74,-162,-76
647687,2179,2059,2189,8,-1605,16156,-103,-161,-58
647689,2149,2055,2097,113,-1599,16346,-136,-158,-53
647690,2195,2054,2111,113,-1599,16346,-168,-154,-57
647692,2170,2056,2108,113,-1599,16346,-168,-154,-57
647693,2168,2058,2131,392,-1775,16134,-215,-154,-54
647694,2077,2057,2108,392,-1775,16134,-286,-149,-30
647696,2209,2045,2167,620,-2317,16199,-368,-147,-4
647697,2155,2057,2173,620,-2317,16199,-427,-146,10
647699,2174,2059,2062,777,-2173,16352,-443,-149,18
647700,2219,2058,2137,777,-2173,16352,-427,-155,23
647702,2219,2052,2152,784,-2383,16132,-395,-156,37
647703,2146,2052,2111,784,-2383,16132,-395,-156,37
647704,2167,2056,2141,784,-2383,16132,-364,-157,52
647706,2291,2059,2130,753,-2728,16131,-324,-158,60
647707,2111,2056,2106,753,-2728,16131,-270,-159,61
647709,2146,2052,2113,739,-2738,16250,-208,-155,57
647710,2201,2052,2140,739,-2738,16250,-156,-145,44
647711,2169,2056,2094,877,-2567,16383,-99,-134,21
647713,2191,2057,2131,877,-2567,16383,-41,-127,-4
647714,2090,2056,2173,877,-2567,16383,-41,-127,-4
647716,2206,2053,2112,1030,-2364,16294,9,-123,-21
647717,2125,2058,2138,1030,-2364,16294,50,-119,-42
647718,2175,2060,2019,971,-1981,16425,91,-113,-62
647720,2235,2053,2149,971,-1981,16425,124,-94,-75
647721,2110,2052,2102,852,-1598,16820,143,-61,-85
647723,2174,2053,2107,852,-1598,16820,148,-32,-88
647724,2152,2054,2098,852,-1598,16820,148,-32,-88
647725,2150,2057,2101,918,-1445,16625,140,-16,-82
647727,2131,2054,2137,918,-1445,16625,109,-12,-76
647728,2154,2053,2178,781,-1467,16414,70,-11,-67
647730,2168,2054,2093,781,-1467,16414,31,-13,-65
647731,2162,2056,2139,553,-1373,16366,-1,-16,-71
647732,2146,2058,2143,553,-1373,16366,-1,-16,-71
647734,2202,2056,2148,553,-1373,16366,-25,-12,-75
647735,2156,2053,2108,387,-1545,16221,-42,-8,-68
647736,2188,2054,2147,387,-1545,16221,-58,-14,-54
647738,2282,2058,2147,334,-2037,15697,-74,-25,-37
647739,2213,2057,2179,334,-2037,15697,-101,-42,-23
647741,2179,2053,2055,269,-2447,15703,-143,-51,-20
647742,2155,2050,2121,269,-2447,15703,-143,-51,-20
647743,2162,2057,2123,269,-2447,15703,-176,-54,-28
647745,2264,2058,2139,392,-2437,16213,-189,-49,-29
647746,2089,2055,2094,392,-2437,16213,-189,-34,-20
647748,2136,2053,2113,683,-2441,16580,-177,-19,-5
647749,2131,2057,2175,683,-2441,16580,-163,0,6
647750,2168,2057,2098,954,-2316,16900,-145,22,16
647752,2150,2059,2125,954,-2316,16900,-145,22,16
647753,2160,2055,2164,954,-2316,16900,-115,47,17
647754,2252,2054,2140,1150,-2214,16681,-96,60,17
647756,2149,2054,2108,1150,-2214,16681,-85,57,16
647757,2165,2059,2116,1118,-2356,16131,-79,41,16
647759,2139,2056,2041,1118,-2356,16131,-72,28,1
647760,2207,2052,2151,1118,-2356,16131,-72,28,1
647761,2181,2052,2105,899,-2310,16002,-62,20,-22
647763,2188,2057,2098,899,-2310,16002,-48,20,-33
647764,2125,2057,1979,896,-2341,16198,-47,33,-37
647765,2218,2053,2121,896,-2341,16198,-50,55,-29
647767,2220,2042,2151,1051,-2244,16460,-50,83,-21
647768,2147,2055,2123,1051,-2244,16460,-50,83,-21
647769,2169,2057,2126,1051,-2244,16460,-33,106,-14
647771,2156,2058,2068,1076,-2075,16164,-5,114,-5
647772,2387,2056,2316,1076,-2075,16164,28,105,0
647774,2177,2051,2121,721,-2372,15750,51,86,10
647775,2114,2055,2084,721,-2372,15750,64,65,17
647776,2214,2059,2107,721,-2372,15750,64,65,17
647777,2115,2058,2000,294,-2745,15738,67,41,14
647779,2244,2043,2180,294,-2745,15738,69,20,17
647780,2103,2053,2115,99,-2788,15762,76,0,23
647781,2100,2058,2086,99,-2788,15762,87,-12,27
647783,2147,2058,2113,99,-2788,15762,87,-12,27
647784,2145,2058,2090,411,-2613,15930,95,-18,28
647785,2166,2050,2052,411,-2613,15930,100,-19,29
647787,2152,2053,2166,922,-2387,16045,99,-23,31
647788,2165,2056,2088,922,-2387,16045,102,-18,25
647789,2126,2056,2100,922,-2387,16045,102,-18,25
647791,2177,2056,2109,1170,-2149,16224,103,-9,15
647792,2117,2052,2112,1170,-2149,16224,93,6,5
647793,2117,2053,2115,1222,-2000,16516,82,29,-11
647795,2128,2055,2102,1222,-2000,16516,67,53,-22
647796,2166,2059,2102,1135,-1833,16436,46,67,-30
647797,2247,2059,2196,1135,-1833,16436,46,67,-30
647799,2203,2050,2101,1135,-1833,16436,24,70,-43
647800,2189,2052,2147,772,-1692,15999,7,61,-53
647801,2212,2058,2116,772,-1692,15999,-15,45,-57
647803,2003,2056,2065,320,-1965,15586,-41,30,-51
647804,2237,2055,2154,320,-1965,15586,-75,11,-33
647806,2129,2051,2103,320,-1965,15586,-75,11,-33
647807,2124,2054,2071,20,-2417,15682,-105,-6,-13
647808,2169,2057,2106,20,-2417,15682,-127,-11,15
647810,2133,2058,2070,108,-2691,16003,-133,-18,46
647811,2185,2052,2145,108,-2691,16003,-121,-28,74
647812,2118,2054,2145,472,-2817,15996,-98,-48,93
647814,2151,2056,2084,472,-2817,15996,-98,-48,93
647815,2132,2057,2102,472,-2817,15996,-63,-70,93
647817,2156,2058,2141,743,-2726,16067,-22,-83,80
647818,2130,2053,2119,743,-2726,16067,18,-82,59
647819,2173,2054,2124,903,-2585,16491,61,-75,35
647821,2117,2057,2154,903,-2585,16491,101,-57,17
647822,2151,2058,2070,903,-2585,16491,101,-57,17
647823,2236,2053,2159,1059,-2360,16837,132,-29,10
647825,2140,2050,2113,1059,-2360,16837,161,-8,8
647826,2130,2055,2108,1061,-2032,16678,183,8,7
647827,2164,2056,2121,1061,-2032,16678,195,9,2
647829,2160,2059,2109,797,-1752,16248,197,7,-9
647830,2162,2057,2112,797,-1752,16248,197,7,-9
647831,2086,2052,2041,797,-1752,16248,180,10,-11
647833,2180,2053,2109,514,-1815,16168,144,11,-11
647834,2124,2056,2093,514,-1815,16168,101,15,-9
647835,2186,2058,2089,360,-1753,16167,75,11,-5
647837,2150,2055,2113,360,-1753,16167,75,11,-5
647838,2157,2052,2131,360,-1753,16167,59,1,6
647839,2152,2054,2109,282,-1770,15927,47,-12,16
647840,2140,2057,2099,282,-1770,15927,27,-22,22
647842,2126,2059,2079,334,-1915,15943,0,-27,23
647843,2187,2055,2131,334,-1915,15943,0,-27,23
647844,2168,2055,2116,334,-1915,15943,-25,-26,20
647846,2108,2055,2126,593,-1954,16238,-47,-24,17
647847,2153,2059,2105,593,-1954,16238,-65,-20,13
647849,2192,2057,2117,819,-1896,16355,-73,-17,11
647850,2143,2053,2122,819,-1896,16355,-70,-19,7
647851,2163,2053,2116,819,-1896,16355,-70,-19,7
647853,2187,2056,2131,829,-1944,16287,-64,-18,-1
647854,2153,2059,2100,829,-1944,16287,-59,-18,-7
647855,2179,2056,2110,710,-2070,16231,-50,-19,-17
647857,2139,2053,2118,710,-2070,16231,-39,-16,-27
647858,2163,2054,2141,599,-2193,16205,-32,-16,-28
647859,2159,2057,2123,599,-2193,16205,-32,-16,-28
647861,2180,2056,2101,599,-2193,16205,-25,-14,-26
647862,2102,2054,2121,583,-2238,16237,-20,-8,-25
647864,2158,2053,2129,583,-2238,16237,-14,-6,-22
647865,2188,2057,2113,658,-2189,16214,-6,-8,-20
647866,2140,2056,2105,658,-2189,16214,6,-16,-19
647868,2146,2057,2106,658,-2189,16214,6,-16,-19
647869,2160,2053,2121,655,-2110,16094,24,-26,-21
647870,2173,2055,2119,655,-2110,16094,35,-37,-22
647872,2158,2055,2117,599,-2216,16016,38,-51,-24
647873,2177,2057,2109,599,-2216,16016,35,-60,-28
647874,2176,2057,2113,586,-2219,16060,26,-65,-31
647876,2140,2050,2125,586,-2219,16060,26,-65,-31
647877,2165,2052,2118,586,-2219,16060,16,-73,-35
647878,2167,2059,2110,637,-2118,16082,11,-80,-39
647880,2151,2057,2108,637,-2118,16082,9,-83,-35
647881,2163,2057,2118,707,-2032,16079,6,-82,-32
647883,2151,2053,2123,707,-2032,16079,4,-85,-27
647884,2160,2055,2116,707,-2032,16079,4,-85,-27
647885,2155,2056,2109,774,-2019,16097,-3,-87,-25
647887,2170,2059,2107,774,-2019,16097,-11,-86,-22
647888,2153,2055,2121,831,-1977,16111,-20,-90,-27
647889,2175,2051,2127,831,-1977,16111,-28,-91,-31
647891,2153,2056,2112,788,-2124,16096,-36,-92,-29
647892,2157,2058,2108,788,-2124,16096,-36,-92,-29
647893,2180,2058,2112,788,-2124,16096,-43,-99,-26
647895,2160,2053,2124,763,-2251,15977,-50,-107,-21
647896,2161,2055,2123,763,-2251,15977,-51,-115,-19
647898,2181,2055,2111,764,-2329,15966,-50,-125,-16
647899,2148,2056,2109,764,-2329,15966,-45,-127,-11
647901,2177,2055,2114,850,-2366,16062,-34,-128,-7
647902,2149,2053,2127,850,-2366,16062,-22,-128,-6
647903,2170,2055,2108,850,-2366,16062,-22,-128,-6
647905,2167,2056,2109,974,-2383,16285,-17,-119,-12
647906,2147,2059,2108,974,-2383,16285,-12,-108,-12
647908,2164,2055,2122,1093,-2336,16490,0,-96,-10
647909,2162,2052,2123,1093,-2336,16490,13,-87,-10
647910,2155,2056,2110,1143,-2312,16472,21,-79,-9
647912,2175,2058,2108,1143,-2312,16472,21,-79,-9
647913,2156,2056,2115,1143,-2312,16472,31,-74,-10
647914,2158,2052,2126,1112,-2221,16629,43,-60,-14
647916,2167,2055,2121,1112,-2221,16629,58,-43,-19
647917,2160,2056,2108,1142,-2078,16706,74,-29,-25
647919,2157,2056,2109,1142,-2078,16706,91,-12,-30
647920,2151,2055,2114,1107,-2068,16469,107,-4,-33
647921,2175,2052,2125,1107,-2068,16469,107,-4,-33
647923,2153,2056,2114,1107,-2068,16469,114,4,-37
647924,2160,2056,2108,938,-2183,16233,109,13,-41
647925,2158,2058,2108,938,-2183,16233,107,19,-43
647927,2163,2052,2125,708,-2217,16126,103,23,-42
647928,2152,2052,2121,708,-2217,16126,103,23,-37
647930,2148,2056,2115,708,-2217,16126,103,23,-37
647931,2183,2056,2108,577,-2193,15979,109,19,-34
647932,2175,2057,2115,577,-2193,15979,123,9,-25
647934,2159,2053,2126,559,-2236,15915,129,4,-15
647935,2167,2054,2118,559,-2236,15915,126,3,-2
647936,2151,2055,2111,641,-2219,15958,128,-2,5
647938,2171,2059,2110,641,-2219,15958,128,-2,5
647939,2161,2056,2117,641,-2219,15958,128,-6,11
647940,2154,2050,2127,772,-2087,16014,131,-3,14
647942,2149,2054,2117,772,-2087,16014,136,0,15
647943,2146,2057,2111,882,-2126,15961,140,-4,18
647944,2190,2056,2111,882,-2126,15961,140,-4,18
647946,2183,2054,2119,882,-2126,15961,131,-6,20
647947,2158,2050,2124,918,-2171,16070,117,-5,18
647948,2165,2053,2116,918,-2171,16070,105,2,11
647950,2161,2057,2108,945,-2091,16137,99,8,1
647951,2160,2059,2107,945,-2091,16137,99,8,1
647952,2152,2057,2114,945,-2091,16137,97,13,-6
647953,2161,2053,2126,924,-2003,16173,97,25,-12
647955,2145,2054,2112,924,-2003,16173,93,39,-12
647956,2166,2057,2107,931,-2025,16435,82,61,-6
647957,2155,2057,2104,931,-2025,16435,82,61,-6
647959,2151,2054,2119,931,-2025,16435,64,93,0
647960,2171,2052,2130,951,-2080,16841,46,128,11
647961,2159,2055,2117,951,-2080,16841,37,168,29
647963,2126,2057,2106,993,-2089,16721,33,197,46
647964,2174,2058,2110,993,-2089,16721,42,206,61
647965,2137,2052,2123,993,-2089,16721,42,206,61
647967,2174,2052,2127,867,-2150,16159,54,201,69
647968,2167,2056,2113,867,-2150,16159,63,184,71
647969,2160,2058,2106,485,-2359,15931,65,170,68
647971,2159,2058,2111,485,-2359,15931,64,159,62
647972,2156,2053,2124,485,-2359,15931,64,159,62
647973,2163,2054,2122,320,-2409,15969,65,142,62
647975,2161,2055,2112,320,-2409,15969,79,131,71
647976,2161,2059,2106,401,-2312,16139,98,125,87
647977,2157,2056,2116,401,-2312,16139,120,121,100
647979,2159,2052,2126,610,-2045,16357,146,123,110
647980,2162,2052,2120,610,-2045,16357,146,123,110
647981,2160,2057,2113,610,-2045,16357,173,121,114
647983,2158,2057,2107,860,-1738,16458,201,125,112
647984,2159,2055,2117,860,-1738,16458,227,127,111
647986,2156,2051,2121,1010,-1664,16393,239,127,107
647987,2163,2057,2114,1010,-1664,16393,236,127,98
647988,2163,2057,2107,978,-1590,16210,230,120,80
647990,2158,2058,2109,978,-1590,16210,230,120,80
647991,2157,2055,2124,978,-1590,16210,225,109,57
647992,2163,2055,2122,770,-1396,15956,225,98,33
647994,2157,2055,2114,770,-1396,15956,231,77,13
647995,2163,2056,2107,527,-1306,15755,237,54,-4
647996,2161,2056,2114,527,-1306,15755,237,54,-4
647998,2150,2053,2122,527,-1306,15755,239,39,-18
647999,2160,2054,2123,341,-1200,15844,236,24,-24
648001,2159,2057,2113,341,-1200,15844,225,17,-29
648002,2165,2059,2109,294,-1018,15935,213,8,-29
648003,2164,2056,2115,294,-1018,15935,195,-7,-26
648005,2157,2050,2124,294,-1018,15935,195,-7,-26
648006,2162,2055,2119,320,-919,15805,164,-25,-26
648007,2150,2054,2112,320,-919,15805,117,-46,-27
648009,2150,2059,2105,317,-859,15718,67,-71,-36
648010,2147,2057,2120,317,-859,15718,21,-92,-47
648011,2168,2053,2126,382,-948,15778,-21,-106,-53
648013,2155,2056,2114,382,-948,15778,-21,-106,-53
648014,2164,2056,2107,382,-948,15778,-68,-115,-48
648016,2150,2056,2109,488,-1256,15830,-119,-119,-38
648017,2158,2054,2124,488,-1256,15830,-171,-127,-31
648018,2161,2052,2120,602,-1476,15735,-210,-139,-25
648020,2145,2055,2110,602,-1476,15735,-238,-153,-30
648021,2168,2055,2108,590,-1626,15766,-259,-168,-38
648023,2161,2054,2117,590,-1626,15766,-275,-179,-51
648024,2165,2053,2127,590,-1626,15766,-275,-179,-51
648026,2129,2054,2110,449,-1738,16288,-278,-176,-61
648027,2173,2057,2107,449,-1738,16288,-270,-166,-61
648029,2170,2059,2110,473,-1783,16844,-256,-149,-56
648030,2151,2055,2124,473,-1783,16844,-236,-127,-46
648031,2176,2054,2123,674,-1744,17018,-212,-106,-37
648033,2160,2057,2111,674,-1744,17018,-187,-88,-34
648034,2154,2056,2107,885,-1717,17005,-164,-76,-39
648036,2160,2056,2118,885,-1717,17005,-152,-65,-39
648037,2159,2052,2124,885,-1717,17005,-152,-65,-39
648039,2165,2055,2112,920,-1991,16902,-147,-54,-32
648040,2160,2056,2107,920,-1991,16902,-147,-48,-25
648041,2144,2057,2107,790,-2209,16930,-142,-37,-19
648043,2160,2055,2129,790,-2209,16930,-128,-18,-18
648044,2165,2052,2120,698,-2182,17091,-102,7,-16
648046,2165,2055,2109,698,-2182,17091,-57,25,-12
648047,2150,2057,2108,698,-2182,17091,-57,25,-12
648048,2164,2054,2119,708,-2152,17043,-3,46,0
648050,2170,2051,2125,708,-2152,17043,51,69,12
648051,2131,2053,2114,795,-2108,16734,94,84,22
648052,2180,2056,2113,795,-2108,16734,133,94,21
648054,2164,2058,2106,795,-2108,16734,133,94,21
648055,2153,2054,2117,791,-2021,16057,160,83,12
648056,2160,2052,2127,791,-2021,16057,160,66,4
648057,2170,2055,2116,654,-2088,15799,134,47,-7
648059,2165,2056,2110,654,-2088,15799,108,36,-22
648060,2166,2058,2107,511,-1766,15924,93,20,-34
648062,2149,2054,2116,511,-1766,15924,93,20,-34
648063,2171,2050,2126,511,-1766,15924,100,3,-38
648064,2167,2055,2115,507,-1597,15819,109,-6,-30
648066,2154,2056,2102,507,-1597,15819,110,-5,-16
648067,2168,2057,2112,507,-1671,16066,90,10,-6
648068,2165,2054,2122,507,-1671,16066,61,33,-1
648070,2163,2052,2125,507,-1671,16066,61,33,-1
648071,2155,2055,2111,669,-1567,16205,32,53,4
648072,2184,2058,2106,669,-1567,16205,2,55,-1
648073,2108,2058,2109,785,-1460,16131,-24,47,-3
648075,2158,2053,2122,785,-1460,16131,-24,47,-3
648076,2130,2055,2123,785,-1460,16131,-52,40,-7
648077,2181,2054,2115,696,-1619,16347,-84,38,-9
648079,2164,2059,2106,696,-1619,16347,-113,37,-2
648080,2156,2058,2115,635,-1646,16457,-127,34,1
648081,2173,2052,2125,635,-1646,16457,-116,27,0
648083,2138,2054,2121,635,-1646,16457,-116,27,0
648084,2169,2056,2112,700,-1688,16261,-95,20,-5
648085,2162,2061,2108,700,-1688,16261,-84,18,-8
648087,2136,2056,2115,729,-1967,16264,-78,18,-14
648088,2168,2050,2126,729,-1967,16264,-65,23,-16
648089,2163,2055,2116,736,-2129,16165,-46,26,-12
648091,2163,2057,2110,736,-2129,16165,-46,26,-12
648092,2159,2058,2108,736,-2129,16165,-27,26,-10
648094,2156,2055,2119,719,-2157,15864,-12,18,-17
648095,2168,2050,2129,719,-2157,15864,0,6,-30
648096,2149,2054,2114,612,-2140,15804,12,-11,-41
648098,2174,2057,2105,612,-2140,15804,19,-19,-45
648099,2133,2057,2107,612,-2140,15804,19,-19,-45
648100,2138,2055,2120,550,-2085,16218,23,-12,-43
648102,2178,2052,2123,550,-2085,16218,28,-3,-36
648103,2162,2057,2116,698,-1840,16628,39,14,-31
648104,2171,2056,2108,698,-1840,16628,52,28,-22
648106,2172,2058,2110,698,-1840,16628,52,28,-22
648107,2167,2055,2124,875,-1725,16401,64,36,-15
648108,2129,2054,2119,875,-1725,16401,60,31,-13
648110,2174,2054,2113,792,-1779,15753,43,17,-23
648111,2162,2058,2108,792,-1779,15753,22,-3,-38
648112,2160,2059,2114,506,-1823,15530,0,-29,-52
648114,2159,2051,2126,506,-1823,15530,0,-29,-52
648115,2166,2053,2121,506,-1823,15530,-9,-56,-64
648116,2164,2056,2112,341,-1803,15510,-9,-88,-67
648118,2159,2057,2107,341,-1803,15510,-14,-110,-58
648119,2165,2056,2117,322,-1877,15758,-28,-121,-42
648121,2150,2051,2126,322,-1877,15758,-53,-119,-36
648122,2163,2055,2114,322,-1877,15758,-53,-119,-36
648123,2173,2058,2109,511,-1734,16267,-78,-109,-30
648125,2152,2058,2110,511,-1734,16267,-98,-97,-28
648126,2142,2052,2125,784,-1528,16424,-108,-86,-23
648128,2166,2053,2120,784,-1528,16424,-123,-77,-21
648129,2152,2054,2114,956,-1587,16617,-147,-64,-19
648130,2181,2059,2109,956,-1587,16617,-179,-49,-22
648132,2152,2056,2116,931,-1479,16803,-193,-40,-34
648133,2179,2050,2129,931,-1479,16803,-193,-40,-34
648135,2159,2054,2115,931,-1479,16803,-164,-42,-48
648136,2168,2058,2107,851,-1557,16127,-115,-59,-51
648138,2172,2059,2106,851,-1557,16127,-85,-85,-49
648139,2148,2052,2124,563,-2298,15285,-83,-120,-44
648140,2164,2052,2124,563,-2298,15285,-112,-149,-52
648142,2173,2056,2115,165,-2615,15394,-157,-165,-66
648143,2161,2059,2108,165,-2615,15394,-188,-175,-77
648145,2139,2057,2119,165,-2615,15394,-188,-175,-77
648146,2174,2050,2131,253,-2261,15772,-182,-181,-80
648148,2152,2055,2115,253,-2261,15772,-151,-189,-70
648149,2169,2059,2108,586,-1998,15936,-122,-196,-52
648150,2177,2058,2109,586,-1998,15936,-114,-196,-35
648152,2146,2052,2121,873,-1910,16285,-126,-188,-28
648153,2215,2052,2120,873,-1910,16285,-151,-176,-30
648155,2172,2057,2113,1058,-1632,16765,-182,-156,-37
648156,2170,2059,2112,1058,-1632,16765,-187,-143,-54
648158,2175,2054,2109,1058,-1632,16765,-187,-143,-54
648159,2116,2050,2122,1217,-1279,16476,-157,-152,-70
648161,2197,2055,2110,1217,-1279,16476,-114,-179,-76
648162,2135,2058,2104,1012,-1785,15684,-100,-204,-74
648164,2164,2056,2115,1012,-1785,15684,-128,-223,-78
648165,2169,2052,2124,586,-2303,15245,-164,-256,-96
648167,2164,2054,2118,586,-2303,15245,-189,-298,-115
648168,2163,2056,2108,322,-2524,14462,-216,-345,-125
648170,2150,2059,2105,322,-2524,14462,-260,-397,-126
648171,2160,2055,2120,210,-2922,14851,-324,-428,-118
648172,2159,2050,2124,210,-2922,14851,-324,-428,-118
648174,2165,2056,2110,210,-2922,14851,-396,-430,-97
648175,2157,2059,2108,574,-2727,16457,-452,-405,-72
648177,2155,2055,2118,574,-2727,16457,-489,-355,-42
648178,2182,2050,2131,1650,-2093,17604,-513,-296,-20
648180,2131,2054,2118,1650,-2093,17604,-527,-233,-10
648181,2142,2059,2103,2615,-1947,17949,-541,-174,-4
648183,2189,2059,2109,2615,-1947,17949,-559,-118,-10
648184,2116,2051,2127,2842,-2055,18173,-562,-61,-29
648186,2173,2055,2124,2842,-2055,18173,-562,-61,-29
648187,2164,2056,2106,2842,-2055,18173,-534,-10,-61
648189,2159,2058,2104,2400,-2459,17620,-470,28,-83
648190,2164,2054,2118,2400,-2459,17620,-387,52,-89
648191,2159,2053,2132,1529,-3372,16474,-299,61,-87
648193,2165,2055,2112,1529,-3372,16474,-205,60,-81
648194,2161,2056,2102,475,-3938,15917,-109,55,-68
648196,2156,2061,2108,475,-3938,15917,-24,57,-55
648197,2157,2053,2126,475,-3938,15917,-24,57,-55
648198,2165,2053,2126,118,-3840,15992,61,60,-38
648200,2158,2057,2113,118,-3840,15992,129,65,-23
648201,2161,2059,2105,602,-3337,16164,182,68,-7
648202,2158,2057,2112,602,-3337,16164,213,69,7
648204,2158,2053,2130,1247,-2801,16363,226,74,8
648205,2163,2055,2123,1247,-2801,16363,226,74,8
648206,2207,2055,2108,1247,-2801,16363,224,77,10
648208,2157,2058,2106,1645,-2506,16295,204,81,9
648209,2157,2055,2116,1645,-2506,16295,170,84,-1
648210,2153,2044,2133,1677,-2574,16205,128,92,-8
648212,2161,2055,2112,1677,-2574,16205,88,114,-9
648213,2171,2056,2109,1677,-2574,16205,88,114,-9
648214,2171,2058,2107,1582,-2803,16512,47,145,3
648216,2122,2055,2119,1582,-2803,16512,1,204,10
648217,2170,2051,2133,1766,-2830,17154,-38,278,14
648219,2166,2054,2111,1766,-2830,17154,-65,359,19
648220,2168,2056,2105,2108,-2535,17685,-73,440,18
648221,2156,2058,2105,2108,-2535,17685,-73,440,18
648223,2159,2055,2126,2108,-2535,17685,-57,513,17
648224,2160,2053,2125,2184,-2081,17468,-11,564,11
648225,2163,2055,2113,2184,-2081,17468,47,593,-6
648227,2160,2059,2103,1775,-2040,16424,101,598,-31
648228,2159,2055,2117,1775,-2040,16424,139,579,-61
648230,2159,2053,2132,848,-2272,15815,168,554,-95
648231,2162,2054,2116,848,-2272,15815,168,554,-95
648232,2161,2056,2110,848,-2272,15815,206,530,-116
648234,2161,2059,2108,-30,-2556,15834,250,512,-115
648235,2157,2055,2124,-30,-2556,15834,296,496,-93
648237,2155,2051,2135,-469,-3225,15544,323,477,-55
648238,2155,2054,2112,-469,-3225,15544,331,454,-11
648240,2160,2059,2106,-537,-3805,15386,319,434,29
648241,2159,2057,2115,-537,-3805,15386,319,434,29
648242,2158,2053,2131,-537,-3805,15386,285,429,61
648244,2173,2053,2121,-262,-3594,16484,248,454,77
648245,2161,2056,2107,-262,-3594,16484,238,504,88
648246,2156,2056,2106,466,-2418,17538,278,557,93
648248,2168,2057,2106,466,-2418,17538,355,603,89
648249,2155,2050,2130,466,-2418,17538,355,603,89
648251,2225,2057,2108,1113,-1381,17526,442,638,75
648252,2123,2055,2099,1113,-1381,17526,518,661,50
648253,2200,2059,2108,1053,-1054,17139,569,665,16
648255,2163,2054,2133,1053,-1054,17139,595,666,-21
648256,2166,2055,2136,289,-1267,16681,587,670,-56
648258,2132,2055,2111,289,-1267,16681,564,674,-85
648259,2186,2057,2105,289,-1267,16681,564,674,-85
648260,2145,2058,2122,-525,-1795,15700,531,675,-99
648262,2157,2052,2126,-525,-1795,15700,475,669,-101
648263,2156,2054,2116,-1147,-2410,15080,406,669,-87
648265,2162,2056,2111,-1147,-2410,15080,349,677,-64
648266,2161,2058,2107,-1496,-2249,15175,333,680,-37
648268,2157,2055,2126,-1496,-2249,15175,352,652,-8
648269,2158,2052,2129,-1353,-1742,14196,388,572,9
648270,2161,2057,2114,-1353,-1742,14196,388,572,9
648272,2163,2059,2105,-1353,-1742,14196,417,448,2
648273,2155,2056,2104,-1310,-1369,13494,421,298,-23
648275,2161,2055,2135,-1310,-1369,13494,374,158,-70
648276,2162,2054,2114,-1393,-1131,14358,281,55,-121
648277,2164,2054,2110,-1393,-1131,14358,162,-3,-161
648279,2158,2054,2103,-836,-1098,15492,17,-14,-185
648280,2159,2056,2121,-836,-1098,15492,-132,-3,-182
648282,2158,2052,2129,-836,-1098,15492,-132,-3,-182
648283,2168,2056,2118,30,-1255,16122,-262,32,-153
648285,2160,2056,2089,30,-1255,16122,-367,85,-107
648286,2157,2057,2113,536,-1559,16600,-446,151,-48
648287,2157,2052,2128,536,-1559,16600,-509,223,7
648289,2163,2055,2114,536,-1997,17055,-544,294,48
648290,2165,2057,2115,536,-1997,17055,-548,362,71
648292,2165,2056,2123,536,-1997,17055,-548,362,71
648293,2153,2056,2114,197,-2457,17268,-526,417,80
648294,2164,2055,2125,197,-2457,17268,-482,450,86
648296,2152,2052,2121,-208,-3133,17145,-428,457,87
648297,2166,2053,2115,-208,-3133,17145,-361,445,84
648299,2159,2056,2121,-674,-3643,17051,-269,423,77
648300,2160,2057,2129,-674,-3643,17051,-152,407,64
648301,2169,2054,2116,-674,-3643,17051,-152,407,64
648303,2154,2054,2113,-1081,-3713,17078,-18,398,51
648304,2166,2057,2143,-1081,-3713,17078,145,392,41
648306,2156,2059,2110,-1227,-3573,16766,322,384,36
648307,2158,2055,2120,-1227,-3573,16766,493,371,34
648309,2166,2053,2106,-1152,-3486,16353,645,360,38
648310,2146,2052,2114,-1152,-3486,16353,771,355,44
648311,2177,2058,2107,-1128,-3159,16289,867,353,45
648313,2136,2057,2167,-1128,-3159,16289,867,353,45
648314,2171,2052,2095,-1128,-3159,16289,941,362,50
648316,2165,2055,2111,-1157,-2422,16219,993,369,56
648317,2179,2057,2097,-1157,-2422,16219,1017,381,50
648318,2156,2055,2144,-1068,-1566,15895,1019,384,44
648320,2167,2054,2132,-1068,-1566,15895,1001,376,35
648321,2158,2053,2118,-1063,-895,15503,967,356,25
648323,2160,2055,2107,-1063,-895,15503,922,337,25
648324,2142,2055,2109,-1063,-895,15503,922,337,25
648326,2165,2065,2136,-1157,-594,15387,858,318,34
648327,2131,2038,2092,-1157,-594,15387,786,306,51
648328,2166,2057,2114,-1185,-445,15346,706,296,65
648330,2156,2057,2115,-1185,-445,15346,619,276,77
648331,2167,2056,2111,-1222,-350,15131,533,248,86
648332,2029,2067,2144,-1222,-350,15131,458,215,85
648334,2281,2056,2097,-1222,-350,15131,458,215,85
648335,2148,2055,2130,-1328,-415,14976,396,187,80
648337,2150,2051,2089,-1328,-415,14976,338,156,69
648338,2143,2060,2114,-1416,-553,14898,290,136,56
648339,2158,2053,2139,-1416,-553,14898,252,120,46
648341,2164,2056,2117,-1421,-740,14874,211,109,41
648342,2152,2050,2130,-1421,-740,14874,211,109,41
648344,2172,2062,2153,-1421,-740,14874,169,110,39
648345,2141,2050,2084,-1356,-728,15193,129,107,40
648346,2158,2056,2120,-1356,-728,15193,95,94,39
648348,2168,2058,2145,-1333,-597,15519,59,81,36
648349,2170,2041,2109,-1333,-597,15519,23,69,35
648350,2165,2056,2115,-1505,-506,15865,-3,51,29
648352,2161,2060,2126,-1505,-506,15865,-3,51,29
648353,2157,2052,2112,-1505,-506,15865,-11,25,20
648354,2157,2053,2119,-1781,-516,15931,-11,-4,16
648356,2161,2042,2081,-1781,-516,15931,-15,-34,15
648357,2190,2055,2128,-2063,-793,15888,-21,-65,19
648359,2186,2061,2131,-2063,-793,15888,-29,-92,28
648360,2183,2062,2147,-2063,-793,15888,-29,-92,28
648361,2173,2039,2109,-2242,-885,15886,-29,-110,36
648363,2178,2054,2077,-2242,-885,15886,-15,-133,43
648364,2148,2069,2156,-2131,-846,15730,3,-155,48
648366,2178,2054,2105,-2131,-846,15730,17,-175,55
648367,2091,2056,2114,-1960,-734,15990,29,-183,56
648368,2160,2055,2111,-1960,-734,15990,32,-189,50
648370,2158,2059,2110,-1960,-734,15990,32,-189,50
648371,2158,2061,2131,-1606,-302,16513,32,-186,31
648373,2150,2054,2119,-1606,-302,16513,21,-178,12
648374,2190,2052,2124,-1219,41,16771,-11,-166,-13
648375,2177,2054,2106,-1219,41,16771,-59,-152,-37
648377,2178,2060,2133,-1006,35,16757,-126,-146,-51
648378,2145,2050,2103,-1006,35,16757,-126,-146,-51
648380,2143,2052,2083,-1006,35,16757,-196,-138,-57
648381,2162,2055,2115,-1061,-211,16726,-259,-119,-55
648382,2149,2040,2096,-1061,-211,16726,-319,-97,-49
648384,2161,2065,2128,-1246,-546,16761,-362,-67,-36
648385,2177,2054,2094,-1246,-546,16761,-392,-38,-23
648387,2169,2053,2141,-1473,-909,16641,-412,-12,-7
648388,2145,2051,2080,-1473,-909,16641,-401,3,12
648390,2144,2057,2112,-1644,-1248,16451,-373,9,34
648391,2176,2062,2139,-1644,-1248,16451,-373,9,34
648392,2184,2059,2121,-1644,-1248,16451,-332,16,61
648394,2148,2053,2099,-1833,-1674,16488,-283,25,88
648395,2162,2056,2105,-1833,-1674,16488,-234,32,122
648397,2161,2062,2138,-1859,-1968,16623,-186,34,152
648398,2157,2061,2189,-1859,-1968,16623,-133,29,173
648400,2232,2050,2103,-1651,-2001,16697,-75,18,183
648401,2162,2051,2103,-1651,-2001,16697,-75,18,183
648402,2139,2059,2121,-1651,-2001,16697,-7,5,181
648404,2150,2063,2148,-1493,-1878,16856,66,0,174
648405,2185,2044,2123,-1493,-1878,16856,140,-3,160
648406,2170,2052,2100,-1347,-1653,16873,211,-7,148
648408,2158,2053,2103,-1347,-1653,16873,268,-7,137
648409,2144,2061,2130,-1293,-1209,16569,311,-10,123
648411,2165,2059,2200,-1293,-1209,16569,337,-9,111
648412,2139,2050,2092,-1293,-1209,16569,337,-9,111
648414,2166,2054,2108,-1272,-753,16324,344,-6,98
648415,2161,2058,2115,-1272,-753,16324,334,-5,83
648416,2154,2058,2121,-1282,-386,16165,308,-1,72
648418,2171,2056,2118,-1282,-386,16165,274,5,66
648419,2127,2053,2091,-1347,-126,16029,232,13,58
648420,2168,2051,2102,-1347,-126,16029,232,13,58
648422,2149,2057,2124,-1347,-126,16029,189,24,58
648423,2131,2060,2122,-1384,-31,16005,140,35,57
648424,2145,2061,2102,-1384,-31,16005,89,46,52
648426,2181,2052,2109,-1429,-36,16001,34,54,53
648427,2138,2052,2090,-1429,-36,16001,-14,60,50
648428,2153,2062,2112,-1429,-36,16001,-14,60,50
648430,2165,2057,2115,-1528,-171,16062,-53,62,49
648431,2158,2055,2111,-1528,-171,16062,-91,62,48
648432,2182,2055,2103,-1654,-409,16079,-123,62,43
648434,2122,2028,2074,-1654,-409,16079,-144,58,41
648435,2177,2060,2142,-1699,-668,16099,-162,60,38
648437,2173,2055,2129,-1699,-668,16099,-162,60,38
648438,2156,2052,2140,-1699,-668,16099,-168,58,38
648439,2151,2057,2115,-1674,-954,16159,-161,58,40
648441,2129,2057,2093,-1674,-954,16159,-143,59,42
648442,2166,2060,2120,-1530,-1135,16161,-118,53,38
648444,2171,2055,2117,-1530,-1135,16161,-79,42,31
648445,2160,2044,2112,-1437,-1207,16043,-38,31,23
648446,2154,2054,2108,-1437,-1207,16043,-38,31,23
648448,2158,2062,2157,-1437,-1207,16043,0,25,11
648449,2161,2059,2130,-1380,-1224,16010,40,21,1
648450,2162,2042,2082,-1380,-1224,16010,73,18,-10
648452,2162,2052,2110,-1358,-1129,16032,102,14,-20
648453,2168,2054,2101,-1358,-1129,16032,125,10,-29
648455,2145,2063,2113,-1358,-1129,16032,125,10,-29
648456,2143,2054,2108,-1428,-955,16102,136,7,-35
648457,2180,2052,2106,-1428,-955,16102,144,7,-46
648459,2164,2053,2107,-1539,-725,16169,147,6,-51
648460,2147,2057,2101,-1539,-725,16169,137,6,-52
648462,2167,2060,2136,-1614,-486,16116,122,7,-48
648463,2162,2055,2113,-1614,-486,16116,122,7,-48
648464,2154,2050,2106,-1614,-486,16116,96,7,-47
648466,2165,2053,2099,-1593,-404,16072,66,1,-48
648467,2170,2058,2130,-1593,-404,16072,29,2,-47
648468,2143,2055,2119,-1609,-383,16233,-4,6,-48
648470,2164,2052,2114,-1609,-383,16233,-26,11,-49
648471,2156,2050,2103,-1609,-383,16233,-26,11,-49
648472,2158,2044,2092,-1648,-485,16223,-42,13,-47
648474,2146,2060,2130,-1648,-485,16223,-52,11,-47
648475,2162,2054,2116,-1687,-601,16097,-55,11,-41
648477,2162,2044,2112,-1687,-601,16097,-53,14,-40
648478,2172,2056,2105,-1708,-701,16151,-52,14,-45
648479,2147,2058,2119,-1708,-701,16151,-51,13,-49
648481,2155,2060,2121,-1708,-701,16151,-51,13,-49
648482,2187,2053,2145,-1693,-842,16165,-48,10,-45
648484,2149,2053,2103,-1693,-842,16165,-42,-4,-35
648485,2185,2053,2103,-1631,-1012,16072,-37,-12,-26
648486,2147,2062,2134,-1631,-1012,16072,-31,-22,-22
648488,2173,2057,2123,-1570,-1107,16163,-22,-29,-22
648489,2135,2053,2107,-1570,-1107,16163,-14,-27,-24
648491,2178,2053,2105,-1493,-1097,16203,-3,-22,-30
648492,2147,2059,2115,-1493,-1097,16203,-3,-22,-30
648494,2179,2061,2117,-1493,-1097,16203,-4,-16,-34
648495,2180,2034,2093,-1403,-1093,16226,-4,-12,-30
648496,2178,2050,2115,-1403,-1093,16226,-5,-6,-21
648498,2155,2053,2100,-1444,-1054,16257,-6,-5,-14
648499,2163,2063,2136,-1444,-1054,16257,-11,-2,-5
648501,2159,2055,2111,-1481,-1059,16272,-21,0,2
648502,2163,2055,2116,-1481,-1059,16272,-21,0,2
648503,2136,2051,2107,-1481,-1059,16272,-23,-4,9
648505,2165,2055,2114,-1460,-1042,16194,-23,-9,9
648506,2158,2060,2121,-1460,-1042,16194,-18,-10,0
648507,2165,2055,2125,-1399,-1053,16143,-5,-15,-6
648509,2171,2052,2109,-1399,-1053,16143,5,-19,-6
648510,2159,2054,2108,-1399,-1053,16143,5,-19,-6
648511,2155,2054,2098,-1346,-1136,16093,17,-19,-7
648513,2145,2058,2134,-1346,-1136,16093,25,-18,-2
648514,2168,2054,2124,-1351,-1192,16108,37,-17,2
648516,2170,2045,2115,-1351,-1192,16108,47,-14,2
648517,2154,2053,2097,-1356,-1153,16086,52,-14,-1
648518,2173,2060,2127,-1356,-1153,16086,52,-14,-1
648520,2153,2057,2125,-1356,-1153,16086,58,-12,-3
648521,2165,2053,2116,-1390,-1056,16130,61,-11,-6
648523,2159,2053,2121,-1390,-1056,16130,66,-11,-6
648524,2154,2056,2109,-1511,-1000,16186,65,-7,-4
648525,2165,2061,2128,-1511,-1000,16186,61,-9,5
648527,2162,2057,2121,-1613,-957,16157,62,-16,12
648528,2152,2055,2113,-1613,-957,16157,62,-16,12
648529,2157,2052,2107,-1613,-957,16157,62,-24,20
648531,2157,2058,2118,-1662,-907,16166,66,-30,25
648532,2140,2063,2128,-1662,-907,16166,68,-31,24
648533,2172,2054,2122,-1642,-898,16281,70,-24,30
648535,2169,2052,2111,-1642,-898,16281,73,-14,40
648536,2141,2051,2096,-1642,-898,16281,73,-14,40
648538,2160,2059,2125,-1496,-1008,16217,77,-2,50
648539,2163,2060,2128,-1496,-1008,16217,79,1,61
648540,2172,2053,2121,-1344,-1106,16170,78,-2,71
648542,2158,2045,2102,-1344,-1106,16170,78,-4,77
648543,2139,2056,2103,-1320,-1201,16266,84,-3,81
648544,2164,2060,2128,-1320,-1201,16266,84,-3,81
648546,2165,2054,2116,-1320,-1201,16266,89,1,83
648547,2168,2054,2128,-1341,-1400,16314,100,5,90
648548,2144,2052,2115,-1341,-1400,16314,117,2,102
648550,2163,2056,2110,-1355,-1634,16276,135,-3,118
648551,2164,2060,2136,-1355,-1634,16276,148,-16,143
648553,2181,2056,2128,-1355,-1634,16276,148,-16,143
648554,2155,2051,2110,-1367,-1856,15755,167,-48,165
648556,2129,2051,2077,-1367,-1856,15755,197,-91,182
648557,2169,2058,2128,-1421,-1809,15295,233,-141,190
648558,2173,2056,2120,-1421,-1809,15295,267,-191,188
648560,2161,2053,2116,-1483,-1597,15302,307,-230,178
648561,2167,2053,2111,-1483,-1597,15302,351,-265,171
648563,2160,2057,2121,-1426,-1277,15261,393,-300,161
648564,2163,2058,2127,-1426,-1277,15261,432,-336,162
648566,2154,2054,2105,-1373,-966,15300,459,-365,161
648567,2159,2053,2115,-1373,-966,15300,459,-365,161
648569,2156,2055,2109,-1373,-966,15300,476,-388,162
648570,2165,2058,2128,-1499,-466,15648,494,-405,159
648572,2173,2055,2122,-1499,-466,15648,505,-420,150
648573,2154,2053,2114,-1695,108,15752,509,-436,141
648575,2135,2055,2102,-1695,108,15752,501,-456,128
648576,2166,2057,2116,-1861,608,15727,490,-477,114
648577,2165,2055,2126,-1861,608,15727,472,-496,111
648579,2164,2052,2117,-1861,608,15727,472,-496,111
648580,2162,2053,2108,-1994,1109,15775,446,-518,101
648582,2159,2057,2106,-1994,1109,15775,414,-548,76
648583,2157,2059,2124,-1985,1620,15673,375,-575,43
648584,2163,2057,2120,-1985,1620,15673,320,-599,10
648586,2161,2055,2112,-1989,1989,15935,253,-609,-25
648587,2160,2054,2109,-1989,1989,15935,183,-595,-57
648589,2158,2056,2116,-1794,2126,16641,103,-570,-72
648590,2161,2055,2125,-1794,2126,16641,24,-530,-76
648592,2163,2055,2119,-1794,2126,16641,24,-530,-76
648593,2163,2055,2107,-1392,2203,17181,-59,-489,-77
648595,2161,2057,2108,-1392,2203,17181,-141,-450,-84
648596,2158,2056,2123,-920,2327,17439,-225,-404,-95
648597,2159,2054,2120,-920,2327,17439,-306,-353,-109
648599,2160,2054,2113,-588,2193,17600,-387,-304,-125
648600,2159,2057,2109,-588,2193,17600,-473,-255,-142
648602,2159,2057,2117,-363,1753,17570,-554,-205,-160
648603,2161,2054,2126,-363,1753,17570,-625,-155,-173
648605,2162,2054,2114,-363,1753,17570,-625,-155,-173
648606,2157,2056,2104,-255,1106,17394,-686,-105,-181
648608,2161,2056,2116,-255,1106,17394,-723,-63,-191
648609,2158,2055,2125,-220,481,17073,-744,-26,-201
648611,2163,2055,2121,-220,481,17073,-747,4,-208
648612,2162,2056,2110,-244,-108,16568,-734,19,-214
648613,2161,2055,2106,-244,-108,16568,-708,23,-216
648615,2159,2055,2117,-279,-729,15940,-684,15,-221
648616,2161,2055,2124,-279,-729,15940,-684,15,-221
648618,2162,2054,2114,-279,-729,15940,-658,-6,-230
648619,2161,2057,2106,-400,-1167,15418,-627,-33,-242
648621,2158,2056,2112,-400,-1167,15418,-595,-68,-254
648622,2158,2055,2127,-424,-1378,15114,-558,-107,-267
648624,2161,2052,2119,-424,-1378,15114,-516,-141,-281
648625,2161,2052,2110,-373,-1556,15007,-478,-180,-286
648627,2158,2055,2108,-373,-1556,15007,-445,-218,-283
648628,2156,2057,2122,-211,-1700,15028,-416,-248,-279
648630,2160,2055,2121,-211,-1700,15028,-388,-278,-275
648631,2160,2054,2112,1,-1730,15061,-371,-303,-273
648632,2156,2057,2109,1,-1730,15061,-371,-303,-273
648634,2159,2056,2116,1,-1730,15061,-356,-323,-275
648635,2160,2053,2125,100,-1766,15136,-347,-343,-273
648637,2163,2053,2117,100,-1766,15136,-338,-358,-274
648638,2163,2052,2107,128,-1852,15298,-334,-367,-275
648640,2158,2058,2111,128,-1852,15298,-328,-374,-273
648641,2158,2054,2126,238,-1875,15445,-328,-377,-278
648643,2162,2054,2120,238,-1875,15445,-330,-381,-279
648644,2160,2054,2108,307,-1856,15614,-334,-380,-282
648646,2157,2057,2107,307,-1856,15614,-334,-380,-282
648647,2160,2057,2120,307,-1856,15614,-333,-384,-282
648649,2155,2055,2123,337,-1825,16017,-332,-379,-285
648650,2161,2054,2115,337,-1825,16017,-332,-372,-284
648651,2165,2057,2111,343,-1873,16338,-330,-360,-276
648653,2159,2057,2116,343,-1873,16338,-320,-349,-262
648654,2162,2052,2130,388,-1943,16344,-307,-345,-248
648656,2163,2054,2112,388,-1943,16344,-289,-344,-234
648657,2117,2052,2107,360,-2067,16415,-271,-342,-223
648659,2156,2055,2107,360,-2067,16415,-253,-334,-210
648660,2158,2057,2127,360,-2067,16415,-253,-334,-210
648662,2165,2054,2122,228,-2337,16653,-235,-314,-185
648663,2160,2053,2108,228,-2337,16653,-220,-299,-156
648665,2159,2057,2107,285,-2567,16072,-199,-298,-129
648666,2161,2056,2118,285,-2567,16072,-185,-322,-114
648668,2160,2055,2127,327,-2528,15469,-188,-364,-116
648669,2161,2055,2114,327,-2528,15469,-203,-411,-134
648671,2160,2056,2106,250,-2331,15606,-222,-451,-161
648672,2158,2057,2112,250,-2331,15606,-234,-483,-189
648674,2157,2056,2125,257,-2132,16210,-235,-499,-195
648675,2152,2054,2118,257,-2132,16210,-232,-490,-180
648677,2168,2054,2112,257,-2132,16210,-232,-490,-180
648678,2161,2056,2108,450,-2086,16739,-231,-467,-155
648679,2162,2055,2123,450,-2086,16739,-233,-434,-118
648681,2150,2057,2122,761,-2070,17140,-240,-391,-83
648682,2164,2054,2112,761,-2070,17140,-254,-336,-51
648684,2153,2054,2105,971,-2111,17669,-268,-267,-24
648685,2159,2057,2114,971,-2111,17669,-287,-186,-9
648687,2171,2055,2126,1194,-2196,18035,-294,-110,-1
648688,2158,2054,2115,1194,-2196,18035,-294,-51,10
648690,2153,2054,2111,1194,-2196,18035,-294,-51,10
648691,2160,2057,2108,1396,-2532,17529,-280,-22,19
648692,2171,2056,2117,1396,-2532,17529,-256,-8,19
648694,2144,2054,2121,1132,-2855,17216,-228,-3,13
648695,2151,2055,2114,1132,-2855,17216,-197,-6,4
648697,2162,2054,2108,729,-3044,17173,-155,-7,-4
648698,2159,2057,2106,729,-3044,17173,-107,-11,-15
648699,2162,2054,2130,729,-3044,17173,-107,-11,-15
648701,2164,2054,2118,497,-2815,17020,-45,-22,-33
648702,2153,2055,2110,497,-2815,17020,29,-27,-47
648704,2148,2056,2104,486,-2670,16802,92,-26,-44
648705,2166,2057,2118,486,-2670,16802,119,-23,-18
648706,2150,2055,2122,492,-2772,16862,115,-12,12
648708,2152,2053,2115,492,-2772,16862,115,-12,12
648709,2167,2055,2106,492,-2772,16862,91,22,34
648710,2160,2059,2108,423,-2381,17460,64,73,55
648712,2156,2057,2123,423,-2381,17460,39,135,76
648713,2206,2055,2125,616,-2064,17869,18,202,97
648714,2157,2055,2115,616,-2064,17869,-3,262,122
648716,2155,2056,2104,616,-2064,17869,-3,262,122
648717,2165,2056,2112,784,-2177,17979,-28,324,157
648718,2153,2055,2125,784,-2177,17979,-65,398,192
648720,2167,2052,2123,783,-2548,18526,-101,482,232
648721,2159,2055,2110,783,-2548,18526,-126,562,268
648723,2139,2057,2109,929,-2662,18646,-133,627,293
648724,2166,2054,2117,929,-2662,18646,-110,673,303
648725,2161,2053,2125,929,-2662,18646,-110,673,303
648727,2162,2054,2117,1021,-2672,18164,-61,692,296
648728,2164,2057,2109,1021,-2672,18164,0,697,282
648730,2170,2058,2113,885,-3261,17802,58,706,278
648731,2153,2054,2120,885,-3261,17802,97,732,285
648732,2168,2055,2116,750,-3813,18017,138,778,297
648734,2154,2057,2110,750,-3813,18017,201,843,317
648735,2168,2057,2115,750,-3813,18017,201,843,317
648737,2158,2057,2111,828,-3856,18241,272,912,346
648738,2156,2053,2130,828,-3856,18241,351,975,375
648739,2155,2052,2118,1027,-3896,17337,423,1015,403
648741,2162,2057,2109,1027,-3896,17337,480,1033,415
648742,2155,2059,2101,871,-3690,17133,516,1048,403
648744,2145,2056,2123,871,-3690,17133,527,1071,378
648745,2171,2053,2123,871,-3690,17133,527,1071,378
648746,2151,2054,2112,618,-3268,18466,529,1112,341
648748,2170,2057,2110,618,-3268,18466,544,1165,309
648749,2160,2058,2116,760,-2591,19300,582,1224,284
648751,2109,2053,2117,760,-2591,19300,645,1290,270
648752,2160,2055,2121,1037,-2175,19185,711,1358,274
648754,2172,2057,2111,1037,-2175,19185,767,1442,275
648755,2156,2058,2106,1224,-1893,18853,812,1537,272
648756,2166,2057,2121,1224,-1893,18853,812,1537,272
648758,2154,2053,2122,1224,-1893,18853,860,1629,256
648759,2170,2054,2114,1355,-1484,18324,914,1722,235
648761,2161,2059,2107,1355,-1484,18324,952,1819,201
648762,2147,2057,2115,1308,-1292,17830,971,1915,160
648764,2162,2052,2131,1308,-1292,17830,984,2008,110
648765,2176,2054,2119,923,-876,17386,1005,2095,52
648767,2167,2056,2109,923,-876,17386,1032,2171,-8
648768,2166,2059,2106,923,-876,17386,1032,2171,-8
648769,2140,2054,2121,191,-516,16996,1064,2243,-60
648771,2143,2053,2122,191,-516,16996,1088,2323,-94
648772,2140,2055,2117,-914,-419,16962,1110,2407,-107
648774,2157,2059,2104,-914,-419,16962,1137,2484,-105
648775,2159,2057,2116,-2026,-290,16749,1164,2546,-86
648777,2172,2052,2133,-2026,-290,16749,1179,2601,-59
648778,2142,2054,2116,-3041,-173,16459,1177,2642,-29
648780,2172,2056,2110,-3041,-173,16459,1153,2653,-12
648781,2161,2058,2106,-3041,-173,16459,1153,2653,-12
648782,2147,2052,2127,-4005,212,15756,1138,2644,-7
648784,2149,2055,2116,-4005,212,15756,1129,2619,1
648785,2146,2056,2113,-5061,536,15070,1125,2586,18
648787,2171,2058,2105,-5061,536,15070,1126,2557,41
648788,2151,2055,2118,-5878,454,14400,1124,2522,76
648790,2161,2051,2127,-5878,454,14400,1103,2490,120
648791,2181,2054,2119,-6376,234,14035,1071,2460,160
648792,2162,2056,2106,-6376,234,14035,1023,2432,194
648794,2176,2058,2108,-6376,234,14035,1023,2432,194
648795,2149,2053,2123,-6602,219,13987,963,2419,229
648797,2180,2052,2123,-6602,219,13987,918,2411,258
648798,2153,2056,2113,-6554,552,13724,901,2396,284
648800,2174,2059,2106,-6554,552,13724,896,2374,309
648801,2155,2056,2115,-6399,684,13313,891,2348,332
648802,2159,2045,2128,-6399,684,13313,875,2322,351
648804,2164,2054,2116,-6399,684,13313,875,2322,351
648805,2160,2057,2106,-6556,596,13268,847,2305,365
648807,2155,2059,2104,-6556,596,13268,812,2287,382
648808,2162,2052,2122,-6744,779,13466,780,2268,392
648810,2166,2052,2125,-6744,779,13466,766,2243,389
648811,2172,2056,2112,-6912,1060,13379,774,2214,387
648812,2176,2059,2107,-6912,1060,13379,793,2184,395
648814,2152,2057,2116,-7013,832,12779,815,2151,415
648815,2147,2051,2130,-7013,832,12779,815,2151,415
648817,2160,2055,2117,-7013,832,12779,834,2114,439
648818,2157,2056,2107,-7035,600,12025,852,2066,453
648820,2137,2058,2105,-7035,600,12025,873,2016,461
648821,2160,2054,2125,-7164,545,11598,895,1974,464
648822,2167,2052,2126,-7164,545,11598,917,1945,458
648824,2145,2055,2108,-7191,703,11475,921,1913,425
648825,2163,2058,2098,-7191,703,11475,902,1872,341
648827,2160,2059,2117,-7191,703,11475,902,1872,341
648828,2153,2051,2132,-7516,1007,11822,911,1872,308
648829,2163,2053,2116,-7516,1007,11822,950,1895,321
648831,2157,2058,2109,-7765,1411,11771,1000,1906,332
648832,2164,2059,2105,-7765,1411,11771,1055,1902,341
648834,2142,2053,2124,-8022,1916,11543,1104,1892,355
648835,2168,2052,2124,-8022,1916,11543,1132,1883,374
648837,2161,2054,2111,-8604,2284,11505,1129,1872,392
648838,2173,2061,2101,-8604,2284,11505,1111,1860,406
648840,2146,2056,2120,-9273,2878,11338,1074,1836,414
648841,2180,2051,2133,-9273,2878,11338,1074,1836,414
648843,2145,2054,2109,-9273,2878,11338,1027,1808,418
648844,2172,2059,2106,-9752,3187,11026,1005,1778,429
648846,2151,2058,2111,-9752,3187,11026,972,1732,444
648847,2162,2051,2132,-10025,3347,10620,944,1688,450
648849,2162,2050,2119,-10025,3347,10620,927,1655,456
648850,2166,2058,2108,-10285,3439,10446,915,1618,458
648852,2170,2059,2104,-10285,3439,10446,900,1577,455
648853,2170,2054,2122,-10356,3433,10151,880,1537,440
648854,2156,2050,2124,-10356,3433,10151,852,1501,419
648856,2162,2056,2113,-10356,3433,10151,852,1501,419
648857,2166,2058,2107,-10623,3277,9890,835,1489,431
648859,2157,2056,2115,-10623,3277,9890,810,1480,449
648860,2156,2045,2129,-10825,3343,9644,777,1467,463
648862,2158,2053,2115,-10825,3343,9644,742,1450,470
648863,2149,2057,2109,-11001,3768,9539,712,1431,482
648865,2143,2060,2107,-11001,3768,9539,692,1417,497
648866,2175,2053,2126,-11288,4142,9424,680,1403,511
648868,2155,2053,2124,-11288,4142,9424,661,1384,533
648869,2158,2057,2113,-11288,4142,9424,661,1384,533
648870,2127,2061,2106,-11444,4438,9184,653,1361,563
648872,2149,2057,2115,-11444,4438,9184,648,1328,587
648873,2164,2051,2127,-11676,5139,8511,594,1263,573
648875,2168,2054,2117,-11676,5139,8511,502,1203,538
648876,2155,2059,2100,-11437,4950,8468,471,1199,552
648878,2163,2058,2110,-11437,4950,8468,478,1203,586
648879,2161,2052,2131,-11508,3707,8605,578,1192,674
648881,2161,2054,2122,-11508,3707,8605,792,1178,736
648882,2163,2057,2109,-11508,3707,8605,792,1178,736
648883,2154,2059,2106,-11758,5345,7771,683,1135,571
648885,2160,2054,2119,-11758,5345,7771,630,1071,506
648886,2156,2051,2129,-12660,5602,7256,676,1000,503
648888,2157,2054,2117,-12660,5602,7256,706,921,481
648889,2149,2058,2103,-12876,5613,7036,719,835,474
648891,2160,2060,2110,-12876,5613,7036,713,752,475
648892,2165,2052,2129,-12874,5864,7038,698,678,481
648894,2162,2052,2121,-12874,5864,7038,698,678,481
648895,2162,2057,2110,-12874,5864,7038,675,619,472
648896,2168,2059,2109,-12659,6309,6970,637,571,457
648898,2163,2055,2120,-12659,6309,6970,584,529,432
648899,2173,2044,2138,-12376,6627,6891,528,495,394
648901,2149,2054,2108,-12376,6627,6891,478,466,348
648902,2153,2059,2103,-12301,6992,7020,440,437,298
648903,2164,2058,2105,-12301,6992,7020,417,404,247
648905,2161,2050,2130,-12301,6992,7020,417,404,247
648906,2171,2052,2127,-12346,7386,6853,416,370,205
648908,2154,2057,2111,-12346,7386,6853,421,329,167
648909,2165,2061,2109,-12501,7547,6479,419,282,126
648911,2170,2054,2116,-12501,7547,6479,397,228,82
648912,2150,2045,2130,-12714,7498,6283,347,171,39
648913,2139,2054,2109,-12714,7498,6283,291,107,-8
648915,2135,2058,2102,-12714,7498,6283,291,107,-8
648916,2162,2061,2102,-12775,7904,6041,233,39,-69
648918,2207,2051,2128,-12775,7904,6041,169,-34,-137
648919,2160,2050,2135,-12678,8400,6123,112,-93,-204
648920,2168,2057,2110,-12678,8400,6123,68,-130,-272
648922,2168,2060,2107,-12363,8696,6235,2,-188,-342
648923,2145,2056,2112,-12363,8696,6235,-61,-249,-398
648925,2150,2043,2132,-12128,8637,6392,-116,-311,-450
648926,2167,2053,2112,-12128,8637,6392,-116,-311,-450
648928,2164,2058,2101,-12128,8637,6392,-176,-373,-494
648929,2150,2058,2107,-12101,8453,6841,-230,-433,-548
648931,2140,2050,2128,-12101,8453,6841,-276,-494,-625
648932,2155,2052,2120,-12283,8388,6926,-312,-559,-729
648934,2158,2057,2102,-12283,8388,6926,-352,-626,-851
648935,2151,2059,2098,-12596,8355,6853,-404,-693,-988
648937,2162,2052,2129,-12596,8355,6853,-460,-763,-1132
648938,2153,2051,2139,-12881,8614,6815,-515,-829,-1268
648940,2161,2058,2110,-12881,8614,6815,-576,-895,-1389
648941,2153,2059,2102,-13010,8696,6806,-647,-954,-1491
648943,2138,2055,2120,-13010,8696,6806,-743,-1011,-1572
648944,2185,2051,2152,-12981,8383,7016,-853,-1069,-1636
648946,2158,2056,2094,-12981,8383,7016,-966,-1131,-1684
648948,2148,2059,2097,-12819,7762,7282,-1067,-1197,-1723
648949,2170,2054,2117,-12819,7762,7282,-1151,-1260,-1761
648951,2162,2051,2144,-12521,7064,7715,-1223,-1321,-1805
648952,2169,2055,2104,-12521,7064,7715,-1223,-1321,-1805
648954,2201,2059,2098,-12521,7064,7715,-1278,-1361,-1873
648955,2154,2057,2115,-12066,6602,8281,-1298,-1379,-1953
648957,2162,2050,2145,-12066,6602,8281,-1290,-1377,-2042
648959,2160,2055,2103,-11475,6232,8582,-1264,-1356,-2123
648960,2158,2058,2096,-11475,6232,8582,-1235,-1324,-2199
648962,2157,2057,2115,-10972,5666,9085,-1228,-1289,-2282
648963,2157,2043,2146,-10972,5666,9085,-1268,-1253,-2366
648965,2161,2054,2101,-10714,5004,9771,-1341,-1226,-2453
648967,2154,2059,2093,-10714,5004,9771,-1439,-1208,-2542
648968,2160,2055,2085,-10808,4330,10117,-1553,-1198,-2629
648970,2162,2050,2112,-10808,4330,10117,-1659,-1202,-2706
648971,2156,2054,2181,-11075,3463,10361,-1759,-1205,-2773
648973,2147,2060,2147,-11075,3463,10361,-1874,-1202,-2817
648975,2156,2056,2182,-10905,2229,10758,-1980,-1190,-2835
648976,2176,2043,2179,-10905,2229,10758,-2049,-1164,-2850
648978,2159,2055,2095,-10314,1476,11186,-2091,-1128,-2874
648979,2170,2058,2071,-10314,1476,11186,-2096,-1085,-2895
648981,2135,2056,2094,-9576,630,11847,-2096,-1026,-2915
648983,2169,2043,2130,-9576,630,11847,-2080,-972,-2927
648984,2175,2054,2099,-9083,-377,12231,-2043,-916,-2918
648986,2150,2058,2078,-9083,-377,12231,-1993,-861,-2905
648987,2173,2059,2096,-9020,-1379,11383,-1914,-833,-2882
648989,2160,2045,2142,-9020,-1379,11383,-1838,-819,-2829
648990,2161,2054,2111,-9325,-3050,10777,-1819,-816,-2781
648992,2160,2059,2097,-9325,-3050,10777,-1847,-790,-2766
648994,2154,2056,2128,-9945,-4143,11162,-1887,-759,-2772
648995,2161,2044,2154,-9945,-4143,11162,-1915,-727,-2780
648997,2168,2053,2120,-10382,-5033,11525,-1905,-697,-2771
648998,2159,2059,2096,-10382,-5033,11525,-1852,-670,-2728
649000,2160,2058,2100,-10386,-5893,11746,-1762,-652,-2658
649002,2138,2045,2143,-10386,-5893,11746,-1640,-626,-2579
649003,2170,2054,2116,-9954,-6912,11756,-1517,-604,-2479
649005,2163,2059,2092,-9954,-6912,11756,-1397,-569,-2370
649006,2146,2055,2102,-9607,-7951,11846,-1285,-523,-2279
649008,2161,2051,2134,-9607,-7951,11846,-1173,-482,-2190
649010,2188,2055,2123,-9552,-7930,12128,-1078,-444,-2098
649011,2146,2056,2099,-9552,-7930,12128,-1182,-386,-2142
649013,2166,2056,2106,-10488,-9786,12493,-1258,-289,-2042
649014,2164,2051,2132,-10488,-9786,12493,-1106,-188,-1892
649016,2169,2053,2124,-10793,-11075,12410,-932,-111,-1741
649018,2153,2057,2100,-10793,-11075,12410,-715,-53,-1568
649019,2169,2058,2101,-10793,-11075,12410,-715,-53,-1568
649021,2164,2051,2133,-9978,-11182,12563,-489,-19,-1404
649022,2185,2052,2127,-9978,-11182,12563,-297,3,-1239
649024,2164,2057,2104,-9071,-11365,12937,-151,43,-1077
649025,2145,2059,2103,-9071,-11365,12937,-20,74,-913
649027,2165,2055,2127,-8444,-11423,12838,66,108,-741
649028,2156,2052,2132,-8444,-11423,12838,65,174,-587
649030,2140,2057,2106,-8591,-11455,12496,29,235,-428
649031,2172,2059,2102,-8591,-11455,12496,2,266,-261
649033,2158,2056,2116,-8952,-11229,12131,-26,272,-93
649034,2159,2044,2133,-8952,-11229,12131,-65,283,85
649036,2163,2055,2112,-9206,-11097,11765,-89,255,247
649037,2166,2058,2103,-9206,-11097,11765,-89,255,247
649039,2154,2057,2105,-9206,-11097,11765,-104,249,427
649040,2159,2051,2131,-9626,-11252,11610,-135,288,648
649042,2156,2053,2122,-9626,-11252,11610,-155,317,870
649043,2175,2056,2107,-9221,-10789,11038,-151,305,1049
649045,2164,2058,2102,-9221,-10789,11038,-121,274,1200
649046,2156,2052,2125,-8904,-10274,10529,-71,248,1345
649048,2156,2053,2126,-8904,-10274,10529,-15,232,1487
649049,2173,2057,2112,-8994,-10027,10215,49,230,1626
649051,2159,2058,2104,-8994,-10027,10215,125,233,1757
649052,2158,2054,2114,-9214,-9627,9856,204,240,1879
649054,2167,2052,2135,-9214,-9627,9856,272,263,1987
649055,2161,2054,2117,-9214,-9627,9856,272,263,1987
649056,2156,2058,2100,-9626,-9263,9515,317,296,2094
649058,2167,2059,2105,-9626,-9263,9515,366,320,2218
649059,2158,2051,2134,-10121,-8914,9279,377,353,2333
649061,2163,2053,2122,-10121,-8914,9279,349,394,2427
649062,2147,2056,2109,-10628,-8281,9268,330,408,2521
649064,2167,2059,2100,-10628,-8281,9268,333,363,2597
649065,2155,2054,2120,-10873,-7479,9220,383,261,2676
649067,2168,2050,2132,-10873,-7479,9220,453,128,2757
649068,2149,2056,2112,-11026,-6973,9409,537,-5,2827
649070,2165,2059,2103,-11026,-6973,9409,537,-5,2827
649071,2156,2056,2113,-11026,-6973,9409,622,-130,2882
649073,2176,2044,2139,-10970,-6601,9864,705,-252,2920
649074,2142,2053,2118,-10970,-6601,9864,784,-371,2942
649076,2165,2059,2102,-10803,-6318,10172,862,-468,2943
649077,2167,2059,2105,-10803,-6318,10172,953,-539,2929
649079,2150,2050,2136,-10578,-5707,10368,1071,-589,2901
649080,2162,2055,2121,-10578,-5707,10368,1212,-619,2871
649082,2163,2057,2105,-10391,-5090,10599,1379,-635,2855
649083,2156,2058,2100,-10391,-5090,10599,1563,-643,2853
649085,2157,2051,2131,-10393,-4530,11030,1752,-648,2876
649086,2171,2052,2122,-10393,-4530,11030,1924,-636,2911
649088,2158,2054,2107,-10430,-3610,10869,2081,-616,2948
649090,2168,2058,2098,-10430,-3610,10869,2225,-590,2983
649091,2147,2053,2128,-10293,-2456,10700,2349,-547,3017
649093,2164,2052,2132,-10293,-2456,10700,2443,-490,3040
649094,2156,2054,2113,-10293,-2456,10700,2443,-490,3040
649096,2168,2058,2108,-9928,-1351,10834,2497,-432,3056
649097,2149,2054,2121,-9928,-1351,10834,2530,-376,3065
649099,2157,2050,2138,-9381,-135,10842,2540,-313,3071
649100,2146,2057,2112,-9381,-135,10842,2545,-241,3072
649102,2180,2059,2099,-8627,1378,10773,2561,-168,3065
649103,2137,2056,2117,-8627,1378,10773,2579,-95,3046
649105,2155,2042,2140,-7695,3172,10626,2578,-17,3000
649106,2155,2054,2113,-7695,3172,10626,2562,52,2922
649108,2169,2058,2098,-7062,4520,10043,2562,95,2879
649109,2158,2059,2101,-7062,4520,10043,2534,125,2847
